時間[s] x軸周り[deg] y軸周り[deg] z軸周り[deg]
0 0 0 0
0.02 0 0 0
0.05333333 343.5192 352.472 1.010918
0.08666666 342.2763 355.9435 359.6407
0.12 342.2474 356.0053 359.6482
0.1521358 341.8766 356.3713 359.9243
0.1854691 341.339 356.5934 0.5651853
0.2171105 341.4485 356.9309 0.5447084
0.2474732 342.1365 357.1839 0.5916966
0.2766623 342.8254 357.3601 0.5509054
0.3076852 343.5741 357.5721 0.4988215
0.3365902 344.0716 357.7427 0.6463507
0.3652121 344.2395 357.903 0.7054999
0.3944782 344.4756 358.2169 0.7787716
0.4240556 344.6368 358.4246 0.9543347
0.4531648 344.7236 358.5714 1.240317
0.4816194 344.9925 358.5843 1.55608
0.5104453 345.3688 358.5338 1.790529
0.5385298 345.765 358.3678 2.163096
0.5683103 345.8463 358.1566 2.412987
0.60043 345.8889 357.8055 2.703305
0.629516 345.9651 357.5096 2.904622
0.6574404 345.9839 357.3211 2.875646
0.6846129 345.8918 357.1805 2.729447
0.7137673 345.9553 357.1249 2.654294
0.7429254 345.9459 357.3355 2.500943
0.7704737 345.5645 357.5673 2.14993
0.8003166 345.3495 357.7447 2.021099
0.8304347 344.9691 358.0753 1.928051
0.8608526 344.377 358.3678 1.827495
0.894186 343.9992 358.5758 1.623229
0.9264113 343.3336 359.035 1.198448
0.9562175 343.2428 359.3222 1.000752
0.986788 343.1139 359.7498 0.7075612
1.016369 343.0112 0.07758026 0.4725977
1.045811 343.1194 0.4317394 0.2735792
1.073499 343.5165 0.6501862 0.328135
1.102404 343.6556 0.7043389 0.4088967
1.133558 343.6202 0.6647905 0.3621728
1.163649 343.7603 0.6228009 0.2758551
1.196982 344.1119 0.5173629 0.2594047
1.227526 344.3954 0.416471 0.2998192
1.260859 344.6848 0.459188 0.2695745
1.293138 345.0146 0.6588774 0.1921527
1.321576 345.1611 0.9556564 0.08995997
1.35196 345.4651 1.252361 0.0303232
1.380646 345.6868 1.517512 0.04222221
1.413898 346.3043 1.799374 0.1764363
1.447231 347.3441 2.176154 0.1875702
1.477095 347.9504 2.585747 0.1336503
1.506915 348.7257 2.707971 0.2814817
1.536506 349.4749 2.727151 0.3140892
1.56506 349.6089 2.707217 0.1940687
1.594457 349.4105 2.629034 0.08508085
1.623631 348.8353 2.655013 0.01191187
1.656964 348.117 2.771381 359.8005
1.685055 347.8565 2.916145 359.6312
1.716587 347.6448 3.001218 359.5529
1.74992 347.4505 3.060166 359.4203
1.778077 347.4724 3.095923 359.3522
1.81141 347.6696 3.084882 359.3985
1.842414 347.7006 3.002287 359.4156
1.87158 347.6632 2.900494 359.2681
1.901934 347.7952 2.801672 359.2729
1.933345 347.9641 2.660292 359.3216
1.964822 348.1048 2.42848 359.4505
1.996694 348.3587 2.302847 359.4785
2.027312 348.3951 2.240352 359.3507
2.060013 348.4176 2.183784 359.4577
2.089022 348.3609 2.329429 359.2565
2.11982 348.2771 2.452981 359.1494
2.150528 348.3998 2.568294 359.2432
2.180528 348.2378 2.823458 359.1974
2.212559 347.9126 3.105832 359.0815
2.245893 347.6328 3.436248 359.1841
2.276129 347.1164 4.048963 359.001
2.307666 346.8506 4.681146 358.7776
2.336442 347.1769 5.139793 358.9298
2.368169 347.435 5.587846 359.1844
2.398797 347.3857 5.947803 359.3395
2.428506 347.3837 6.26143 359.6574
2.46184 347.5447 6.479922 0.1232983
2.495173 347.4925 6.614481 0.4746649
2.524699 347.3891 6.742963 0.5283567
2.553145 347.3836 6.973146 0.3888197
2.582984 347.3802 7.153396 0.5549496
2.611514 347.4494 7.282988 0.7314282
2.641045 347.3258 7.613801 0.720498
2.670801 347.1101 7.961018 0.5424945
2.701205 346.8503 8.663356 0.278793
2.734539 346.6938 10.00137 359.9728
2.763125 346.6423 11.46452 359.7687
2.791175 346.6848 13.06089 359.5297
2.824509 346.7162 14.14395 359.3931
2.855924 346.8577 15.64637 359.1687
2.889124 347.0752 16.90189 358.9136
2.922457 347.2238 17.57827 359.1816
2.952866 347.1826 16.35696 359.7846
2.982826 347.0952 15.27927 359.1925
3.014851 347.1797 13.84751 358.5564
3.045514 347.2471 11.67542 358.3257
3.074975 347.1432 8.586225 358.328
3.103652 347.2542 6.116038 358.2767
3.134153 347.8885 2.355511 357.9449
3.163011 348.4868 358.8566 357.799
3.193496 348.7191 356.9766 357.9745
3.225265 349.2581 354.964 358.1708
3.253176 350.2289 353.8021 358.28
3.28651 350.8043 353.5322 358.4924
3.31557 351.9774 354.0259 358.7141
3.344127 352.284 354.6037 358.8801
3.375485 352.4424 355.7525 359.0135
3.408172 352.8072 356.78 359.0738
3.440303 353.0841 358.0905 359.0339
3.46836 353.0051 359.0778 359.038
3.49712 352.7891 359.7987 359.1466
3.526767 352.952 0.1586713 359.4116
3.557172 353.9622 0.5537552 359.5213
3.585473 355.4205 1.135273 359.1232
3.615355 356.1198 1.61226 358.7223
3.645563 356.6232 2.141209 358.4413
3.678896 357.0224 2.498976 358.3978
3.710281 357.3624 2.701404 358.5183
3.742106 357.6289 2.86072 358.5303
3.771396 357.5842 2.893913 358.6521
3.802955 357.5213 2.782994 358.9169
3.833914 357.4718 2.694409 359.0599
3.862145 357.3001 2.584939 359.0957
3.895478 357.1984 2.409447 359.1088
3.927854 357.2479 2.314579 359.0971
3.957642 357.2813 2.186641 359.2171
3.989379 357.4115 2.059027 359.2088
4.018976 357.5561 1.952585 359.2504
4.048999 357.7599 1.946216 359.2933
4.081105 358.1152 2.13412 359.1455
4.114439 358.453 2.472163 359.0621
4.147772 358.4603 2.663125 359.2133
4.176025 358.2475 2.715225 359.2679
4.208118 358.1274 2.826406 359.1967
4.241048 358.0797 2.898693 359.1344
4.271285 358.23 3.017054 359.245
4.302814 358.3619 3.161724 359.2575
4.332705 358.2722 3.306509 359.4107
4.363282 358.281 3.425296 359.4808
4.396194 358.1458 3.558025 359.3024
4.429527 357.9542 3.605566 359.2101
4.458734 358.0867 3.622668 359.0955
4.492067 358.2042 3.652349 358.9534
4.521868 358.3229 3.767197 358.5575
4.555201 358.3678 3.876471 358.2506
4.583833 358.488 3.970224 358.146
4.613688 358.6773 4.051633 358.1123
4.642323 358.8843 4.140065 358.0945
4.673836 359.0152 4.166149 358.1233
4.704763 359.2296 4.105374 358.1408
4.73326 359.3274 4.025874 358.0773
4.766593 359.4249 3.944982 358.0735
4.797782 359.7823 3.850656 358.0713
4.825718 0.04892856 3.733123 358.1174
4.854719 0.3006137 3.649069 358.035
4.886556 0.5687238 3.59905 358.0083
4.916666 0.9603952 3.514108 358.0274
4.948956 1.309399 3.530712 357.9753
4.980605 1.50417 3.552434 358.0227
5.010017 1.82472 3.516587 358.1878
5.043351 2.867275 3.418537 358.4743
5.076684 3.16859 3.423551 358.6289
5.109297 2.482567 3.365328 358.4973
5.137834 2.974021 3.388456 358.5662
5.171167 2.655339 3.594662 358.3958
5.201481 2.310543 3.871845 358.1772
5.231846 2.549271 3.993123 358.2265
5.262897 2.803074 4.111152 358.3515
5.29167 3.032233 4.172625 358.2326
5.320326 3.08283 4.227948 358.1419
5.35366 3.114003 4.184576 358.1005
5.386993 2.97923 4.144743 358.0335
5.419145 3.048289 4.227075 358.0091
5.448153 3.078093 4.445407 357.9541
5.476325 3.086959 4.571224 357.9916
5.506401 3.216792 4.665118 357.9985
5.536159 3.217906 4.76089 357.8906
5.569492 3.241461 4.822194 357.7681
5.602129 3.277293 4.859151 357.714
5.634313 3.417097 4.899341 357.6503
5.666206 3.468643 5.054105 357.481
5.694693 3.559367 5.137052 357.3877
5.724931 3.693774 5.209893 357.4055
5.753263 3.675308 5.262051 357.4593
5.782037 3.608092 5.349321 357.5062
5.809724 3.626785 5.379837 357.5141
5.838965 3.618855 5.420649 357.5352
5.867845 3.562005 5.442038 357.5287
5.899206 3.422877 5.490801 357.51
5.927948 3.354899 5.490006 357.5341
5.958951 3.339991 5.4958 357.5309
5.988274 3.29976 5.516886 357.5227
6.020236 3.243505 5.559509 357.5293
6.051651 3.250584 5.711984 357.5268
6.084984 3.163869 5.828144 357.5536
6.114706 3.178606 5.907135 357.5619
6.14585 3.110072 6.079188 357.4828
6.177227 3.039864 6.273439 357.4178
6.206526 2.93715 6.397028 357.3559
6.237771 2.643044 6.492155 357.3182
6.269851 2.726286 6.621564 357.2154
6.300531 2.600063 6.742921 357.2189
6.331487 2.511887 6.773781 357.191
6.36482 2.535538 6.983483 356.9963
6.396634 2.137191 7.279355 356.8006
6.42659 1.466187 7.64197 356.7276
6.457074 1.484612 7.957477 356.6634
6.488269 1.597774 8.153568 356.4642
6.517725 1.331522 8.290851 356.2337
6.546811 0.919562 8.499629 356.1661
6.577031 1.18391 8.75636 356.1604
6.605321 1.529856 8.871619 356.1463
6.638655 1.812585 9.045671 356.0683
6.668658 1.259424 9.197096 355.8092
6.697606 1.004701 9.362778 355.6087
6.726012 0.8315944 9.480234 355.5265
6.756601 0.7105933 9.682446 355.3419
6.786613 0.6855643 9.987638 355.2863
6.819947 0.5275449 10.23048 355.2385
6.849558 0.4575017 10.46801 355.0631
6.879563 0.6051424 10.75169 354.8983
6.909549 0.7514006 10.97351 354.928
6.941832 0.8653932 11.07271 354.9488
6.971796 0.6684378 11.25667 354.9084
7.003485 0.473362 11.39138 354.8921
7.032891 0.3769621 11.50056 354.8728
7.063218 0.2649119 11.66377 354.8667
7.096551 0.2259924 11.72893 354.8716
7.129808 0.4138732 11.75667 354.9282
7.160255 0.3944542 11.85223 354.9242
7.190247 0.2494735 11.91176 354.8814
7.21969 0.3560859 11.87536 354.9341
7.251415 0.3796425 11.92302 354.9298
7.280797 0.2232019 11.98631 354.9365
7.309707 0.2278503 12.06373 354.9688
7.33937 0.1823473 12.27409 355.0568
7.372703 0.02799524 12.49582 355.1786
7.402445 359.6388 13.10564 355.255
7.433381 359.7749 13.3686 355.3215
7.463435 359.9362 13.62096 355.3867
7.496768 359.6611 13.92589 355.4048
7.530101 359.8811 14.1275 355.4384
7.563435 359.8284 14.23798 355.3891
7.596094 359.549 14.32227 355.2991
7.62681 359.6638 14.38081 355.1992
7.656515 359.7878 14.34949 355.0636
7.689848 359.6178 14.23757 355.0988
7.720016 359.0482 13.31646 354.9177
7.750994 359.5316 12.62438 354.9927
7.781895 359.6087 12.42047 355.3426
7.813455 359.2271 11.95735 355.241
7.846788 359.1413 11.59222 355.1886
7.875927 359.0215 11.43615 354.981
7.909261 359.0422 11.42895 355.1194
7.937692 359.2748 11.62988 355.0369
7.966361 359.287 11.90226 354.9593
7.996047 359.3599 12.14131 354.8817
8.024855 359.5132 12.26958 354.6782
8.052426 359.4207 12.31368 354.7868
8.0804 359.2516 12.51708 354.6402
8.113733 359.2049 12.68782 354.5058
8.142354 359.3352 13.01996 354.5857
8.174374 359.2247 13.26523 354.4715
8.207365 359.2071 13.70793 354.3984
8.238605 359.1005 14.24374 354.3871
8.268682 359.0543 14.64827 354.1273
8.302014 359.252 14.84302 354.1039
8.330517 359.1788 15.31988 353.9787
8.36385 359.3059 15.56798 354.0115
8.392393 359.4395 15.74458 354.0626
8.420883 359.5859 15.92337 353.8157
8.454217 359.8166 16.14078 353.8294
8.48755 359.9545 16.30767 353.6506
8.515574 0.2440711 16.48878 353.595
8.544561 0.576345 16.60133 353.581
8.573239 0.6272254 16.64937 353.5055
8.606572 0.5753884 16.66912 353.434
8.638192 0.528641 16.63896 353.4449
8.6674 0.5398564 16.51981 353.4754
8.697658 0.5737528 16.49045 353.4989
8.72871 0.6004549 16.5476 353.4783
8.762043 0.6544505 16.53159 353.7551
8.791013 0.5829427 16.81421 353.9911
8.819892 0.4267822 17.20966 354.2335
8.853225 0.4558167 17.31775 354.4575
8.882534 0.4424135 17.36004 354.5837
8.915288 0.4228992 17.3451 354.5381
8.943882 0.433313 17.19242 354.6595
8.974089 0.3150303 17.08478 354.7724
9.005416 0.4810154 16.92404 354.8221
9.036836 0.4926845 16.9133 354.818
9.068847 0.3080445 16.8954 354.8913
9.10083 0.4679588 16.75514 354.9373
9.130748 0.4538971 16.6666 354.9293
9.16109 0.304823 16.62948 354.9548
9.190946 0.2434315 16.55229 354.9387
9.222316 0.1299117 16.49327 354.913
9.250998 0.1376712 16.55239 354.8633
9.284331 0.1180568 16.51543 354.8201
9.317664 0.1314926 16.56035 354.7718
9.350998 0.3160047 16.64871 354.7959
9.382787 0.2246189 16.77558 354.6245
9.412051 0.3126059 16.91445 354.6517
9.44151 0.3919431 17.00681 354.6906
9.474844 0.4252128 17.04728 354.7171
9.505355 0.5253037 17.00201 354.787
9.5344 0.4383573 16.97321 354.6833
9.564353 0.5124779 16.92554 354.6913
9.597081 0.6492074 16.90444 354.6231
9.630414 0.7191415 17.0146 354.5347
9.660867 0.8286884 17.05416 354.678
9.689877 0.8940916 17.06106 354.7139
9.722272 0.9578015 17.12756 354.6914
9.752825 1.043006 17.07629 354.7327
9.782112 1.113327 17.18147 354.7292
9.811216 1.048052 17.28752 354.7341
9.842013 1.149101 17.58901 354.644
9.871615 1.298264 17.74765 354.6372
9.901732 1.288925 17.8998 354.7146
9.934035 1.356306 17.91175 354.6936
9.967369 1.426227 17.90512 354.7178
10.0007 1.307936 17.92448 354.7104
10.03099 1.34512 17.85038 354.7611
10.06355 1.290505 17.81481 354.8022
10.09688 1.272406 17.89668 354.7955
10.12848 1.11543 18.049 354.8976
10.15975 0.9941536 18.37019 354.9695
10.19055 0.8406448 18.6076 355.1333
10.22279 0.8081204 18.76663 355.0931
10.25286 0.6456816 18.95088 355.0328
10.28089 0.5422085 19.01222 355.1508
10.31422 0.4644968 19.16135 355.2097
10.34371 0.4152338 19.39386 355.3137
10.37704 0.4358484 19.57682 355.4088
10.40687 0.2964731 19.79407 355.4648
10.4366 0.2614285 19.96501 355.6431
10.46716 0.2001607 20.15187 355.6797
10.50012 0.1340289 20.22582 355.8086
10.5292 0.1295683 20.26229 356.0233
10.55849 0.06322793 20.19814 356.0428
10.58809 0.02722626 20.08544 356.0488
10.61741 0.1125582 19.85361 355.952
10.648 0.1372377 19.80437 355.99
10.67749 0.1390494 19.77669 356.1128
10.70589 0.1742329 19.68394 356.2281
10.7342 0.08618139 19.54387 356.3585
10.7634 0.1948931 19.40147 356.4339
10.79245 0.2398776 19.06981 356.6211
10.82394 0.2255262 18.64709 356.74
10.85728 0.337792 18.19477 356.8213
10.8873 0.5893121 17.3291 356.9262
10.92064 0.5071746 16.69265 356.8143
10.95054 0.6079638 16.15538 356.8775
10.98388 0.5768399 15.77742 356.9349
11.01229 0.5380266 15.48643 356.9982
11.0448 0.5984603 15.34373 356.934
11.07574 0.4843386 15.21541 356.9426
11.10483 0.3770644 15.08592 356.9856
11.13544 0.4746238 15.07197 356.9355
11.16692 0.4935217 15.02032 357.0454
11.20025 0.4197064 14.94865 357.053
11.23264 0.5063807 14.91785 357.0155
11.26598 0.6473336 14.85832 357.0576
11.29925 0.6124868 14.82682 357.0228
11.32922 0.5681523 14.66529 357.0563
11.35876 0.6490384 14.55041 356.9897
11.38939 0.6930302 14.5088 356.942
11.4175 0.6862456 14.50218 356.8711
11.44948 0.6655626 14.49668 356.7816
11.47838 0.5200212 14.57415 356.6891
11.51171 0.4295843 14.69463 356.6613
11.54182 0.5024158 14.82125 356.6482
11.57098 0.5729142 15.01632 356.5399
11.60431 0.6516353 15.07263 356.5887
11.63322 0.7586379 15.03774 356.492
11.66238 0.8267033 15.01215 356.4713
11.69571 0.6102211 15.05775 356.3981
11.72766 0.7477764 15.3168 356.2361
11.75537 0.6789397 15.52161 356.1681
11.78646 0.6285725 15.87337 356.0589
11.8182 1.187879 16.04771 356.2263
11.85153 1.059842 16.37971 356.3091
11.88099 0.9331467 16.66898 355.9641
11.91047 0.8277255 16.74039 355.8779
11.9438 0.7288629 16.71247 355.7935
11.97669 0.8406052 16.59524 355.6519
12.01003 0.8850862 16.49228 355.6449
12.04005 0.9877748 16.45688 355.6203
12.07153 1.042657 16.32915 355.6304
12.10367 1.140671 16.12319 355.6433
12.13257 0.8013769 15.94981 355.3637
12.16397 0.523307 15.81183 355.2272
12.1955 0.3692633 15.48413 355.2558
12.22559 0.3158264 15.28212 355.2447
12.25535 0.5322986 15.08506 355.1831
12.28868 0.8388388 14.92025 355.1454
12.32015 0.9736536 14.6729 355.0832
12.3481 0.7632291 14.54276 355.2114
12.37909 0.5780059 14.644 355.1451
12.40876 0.3417784 14.642 355.3138
12.43724 0.1983681 14.56975 355.5769
12.46698 1.977498 14.43615 355.9037
12.49962 2.283128 14.3299 355.9584
12.53099 1.266687 14.15121 355.8955
12.56433 0.7268827 13.98728 355.6684
12.59322 0.4037923 14.02005 355.2376
12.62543 1.186986 14.248 355.0788
12.65631 0.8379083 14.54499 354.9615
12.68964 0.3430513 14.80352 354.8828
12.71818 0.6093975 15.3491 354.9062
12.74756 0.6513506 15.70582 354.769
12.77822 0.1221442 16.68728 354.7142
12.80935 359.6831 17.44055 354.838
12.84268 359.5285 18.30038 355.0364
12.87199 359.3635 19.34593 355.0136
12.90532 359.0762 20.51919 355.0631
12.93483 358.9731 21.72948 355.1714
12.96493 359.1414 23.13011 355.2804
12.99683 359.3164 24.13906 355.3444
13.02867 359.3874 25.23916 355.4593
13.05893 359.2977 26.33842 355.3804
13.08793 359.2292 27.46845 355.272
13.12126 359.2028 28.01362 355.3165
13.15192 358.7674 28.68564 355.3278
13.18009 358.1961 29.27935 355.1902
13.20883 358.1794 29.80571 355.0192
13.23845 358.035 30.13866 354.9271
13.27124 357.4982 30.59641 354.7971
13.30457 357.1894 31.29846 354.3823
13.33472 356.7767 32.35897 354.3129
13.36468 356.3753 33.08542 354.0228
13.39552 356.0031 33.84445 353.5588
13.42566 355.8519 34.54503 353.4362
13.45899 355.4494 35.25301 353.1813
13.49141 355.4644 36.00984 353.0359
13.52412 355.8238 36.31299 353.0137
13.55406 355.8571 36.62817 352.9119
13.58438 356.1377 37.02119 353.0679
13.61772 355.4283 37.37107 352.703
13.64826 354.6539 37.85057 352.9545
13.67777 354.8392 37.83111 353.7971
13.7073 354.8468 37.70413 353.8929
13.74063 354.4126 37.93183 353.5278
13.77054 354.209 38.48355 353.4896
13.79922 354.5645 38.74179 353.7126
13.8297 354.3766 38.92451 353.8686
13.86303 354.4557 39.08202 353.9904
13.8931 355.315 39.17366 354.343
13.92548 355.5602 39.41203 354.5514
13.9552 355.7708 39.72321 354.7114
13.98507 355.688 39.96553 354.8787
14.0184 355.4848 40.45141 355.0413
14.05105 355.5395 41.11957 355.3439
14.08089 355.6083 41.68616 355.7958
14.11061 355.7595 42.04277 356.0205
14.14293 356.2938 42.37475 356.3838
14.1716 356.6928 42.50453 356.7417
14.20494 356.8937 42.37228 357.0295
14.23827 357.09 42.34574 357.0773
14.2716 357.4638 42.41187 357.0218
14.30225 357.8072 42.3983 356.9185
14.33232 357.9133 42.29089 356.9738
14.36566 358.1827 42.03101 356.9639
14.39899 358.5958 41.08643 356.8078
14.42819 358.9989 39.58199 356.7187
14.45867 359.5224 38.27501 356.8332
14.49122 0.3808367 35.98485 356.94
14.52069 1.400636 33.37119 357.1324
14.55011 2.018723 31.35669 357.1706
14.58233 2.200198 29.098 356.9892
14.61256 2.532477 26.99146 356.7401
14.64206 2.509104 25.13638 356.7247
14.67197 2.543095 24.11492 356.5819
14.70211 2.991523 22.71595 356.4432
14.73138 2.908251 21.51792 356.5691
14.76471 3.03151 20.70498 356.6661
14.79514 3.592168 19.63155 356.8452
14.82545 3.518397 18.76432 357.0347
14.85513 3.37814 18.04691 357.0568
14.8846 3.261864 17.60567 357.1553
14.91675 3.056224 17.42885 357.1474
14.94652 2.653124 17.37217 357.0889
14.97818 2.288117 17.55607 357.066
15.00859 1.785953 17.86477 357.1244
15.03802 1.312717 18.05264 357.1684
15.07136 0.9441814 18.03948 357.2283
15.10063 0.7209216 17.99147 357.2004
15.13396 0.1922633 17.81213 357.114
15.16409 359.8694 17.5348 356.9635
15.19695 359.5738 17.17393 356.8806
15.23019 359.1835 16.82321 356.7668
15.26337 358.8548 16.43935 356.6451
15.29307 358.4684 16.10373 356.5385
15.3264 358.2282 15.93324 356.4438
15.35693 357.9239 15.86072 356.3195
15.38657 357.5853 16.15383 356.1997
15.4199 357.3367 16.61038 356.1616
15.4506 357.103 17.23129 356.1432
15.47989 356.9344 17.89539 356.1185
15.50923 356.8546 18.37589 356.0936
15.53932 356.7442 19.07595 356.0629
15.56907 356.8396 19.69647 355.9738
15.59982 356.9205 20.14449 355.8757
15.63315 357.1369 20.87966 355.6737
15.66212 357.2945 21.51049 355.5022
15.69188 357.4633 22.09955 355.3208
15.72125 357.5343 22.54032 355.2076
15.75015 357.605 23.05019 355.1073
15.78348 357.6237 23.40652 355.0366
15.81346 357.5891 23.89657 354.9159
15.84227 357.5856 24.10537 354.8444
15.87295 357.5363 24.43211 354.7661
15.90299 357.491 24.82743 354.6787
15.93254 357.3413 25.38091 354.67
15.96338 357.2532 26.44108 354.8897
15.99307 357.3411 27.59407 355.1204
16.0218 357.2787 28.37945 355.233
16.05491 357.2675 29.28759 355.254
16.08452 357.295 30.02036 355.1907
16.11785 357.2279 30.93741 355.091
16.15046 357.1665 31.81725 355.0691
16.18039 357.1568 32.57293 355.0126
16.2122 357.1888 33.03257 354.9369
16.24344 357.3745 33.69846 354.778
16.27583 357.3278 34.2083 354.6761
16.30625 357.2705 34.61673 354.6365
16.33958 357.2084 34.82915 354.5751
16.37143 357.1694 34.86948 354.5432
16.40255 357.0198 34.8923 354.4957
16.43186 356.9011 34.80845 354.3929
16.46456 356.8182 34.673 354.2528
16.4935 356.8258 34.39692 354.1219
16.52538 356.9143 34.22852 354.0805
16.5562 356.9169 34.21569 354.0214
16.58954 356.8896 34.18994 353.9799
16.6185 356.8787 34.18198 353.9574
16.65086 356.865 34.2626 353.9426
16.68037 356.781 34.37916 353.9763
16.70959 356.7472 34.51807 354.0589
16.73979 356.6577 34.75269 354.109
16.77261 356.5744 34.95071 354.1905
16.80439 356.3637 35.19336 354.2217
16.83772 356.1807 35.35 354.3147
16.86763 356.091 35.42852 354.3497
16.8985 356.0445 35.37576 354.2685
16.92822 356.0143 35.25895 354.3438
16.96045 356.0842 35.15431 354.3754
16.99378 356.2005 34.86013 354.4078
17.02684 356.2447 34.57043 354.4275
17.06017 356.4812 34.2738 354.4606
17.09131 356.7379 33.83824 354.4557
17.12067 356.8458 33.40539 354.3368
17.15401 356.9272 32.98377 354.344
17.18308 357.0403 32.4766 354.4327
17.21396 357.2319 31.8065 354.4196
17.24729 357.6115 31.17703 354.2694
17.27939 357.7601 30.16993 354.1129
17.31017 358.0158 28.88885 354.3257
17.34132 358.4557 27.67535 354.3936
17.37406 359.0774 25.86216 354.3897
17.40343 359.6939 23.93866 354.382
17.43233 0.5500512 21.90871 354.4608
17.46525 1.067836 20.51007 354.4724
17.49859 2.367979 18.44042 354.4152
17.52762 4.552211 16.39384 354.1262
17.5574 6.769893 14.83337 353.9742
17.58701 9.514279 13.32427 353.885
17.61588 11.19929 12.16255 353.9007
17.6469 12.11416 10.45219 354.1242
17.67684 12.71231 8.416676 354.3078
17.70531 12.80465 6.836117 354.391
17.73618 12.44234 4.96805 354.7704
17.76793 12.56766 3.433369 355.2321
17.79865 12.97644 0.9665419 355.5966
17.82816 13.53641 358.69 355.8929
17.86014 13.99446 357.2813 356.0321
17.89078 14.41625 355.5457 356.2533
17.92411 14.54817 354.0677 356.5982
17.95509 14.66736 352.6377 356.6999
17.98427 14.86031 351.4715 356.7693
18.01369 14.84208 350.5023 356.9319
18.04374 14.74364 349.8156 356.8557
18.07454 14.65115 349.1462 356.8466
18.10465 14.55801 348.9252 356.9695
18.13798 14.3702 348.8434 357.0894
18.16837 14.01306 348.7514 357.3606
18.2017 13.76825 348.6849 357.4292
18.23504 13.53598 348.6081 357.4115
18.26435 13.15565 347.936 357.4488
18.2938 12.80778 347.0775 357.4817
18.32391 12.43506 345.263 357.2198
18.35275 12.21209 343.028 356.6754
18.38227 12.17575 341.5966 356.426
18.41272 12.24242 339.6552 356.2012
18.44228 12.25099 338.3443 355.9404
18.4714 12.25905 336.8668 355.6541
18.503 12.45781 335.5449 355.5171
18.53492 12.74646 334.584 355.5388
18.5648 13.04981 333.9319 355.5428
18.59813 13.19909 333.7069 355.6298
18.62952 13.61235 333.6104 355.8798
18.66286 13.76649 334.0972 356.1423
18.69202 13.49279 334.8255 356.7196
18.72535 13.36513 335.6728 357.1061
18.7568 12.95358 336.9787 357.6079
18.78762 12.64944 338.1996 358.0932
18.81847 12.38872 339.6669 358.4118
18.84961 12.05837 341.6151 359.0917
18.88009 12.11656 343.6432 359.7823
18.90893 11.89864 345.3524 0.06791256
18.9393 11.45426 348.1289 0.7820594
18.9698 11.36006 350.6211 1.419056
19.00313 11.25657 352.3177 1.758828
19.03241 10.6697 355.1456 2.051229
19.06575 10.42203 356.4151 1.987779
19.09819 10.12469 358.7633 2.020681
19.13152 9.721954 0.600702 1.968795
19.16114 9.441956 2.227476 1.599901
19.19208 9.453093 3.767198 1.258768
19.22201 9.26705 4.816683 0.8583893
19.25534 9.114181 5.416389 0.6088715
19.28429 9.150486 6.231067 0.1434111
19.31372 9.099135 6.450481 359.8867
19.34705 9.157468 6.602903 359.5595
19.38039 9.195622 6.566068 359.3726
19.41067 9.028824 6.520274 359.1815
19.43997 8.90883 6.71673 359.0128
19.4733 8.790085 7.022016 358.7776
19.50508 8.575276 7.412093 358.7175
19.53582 8.406778 8.147713 358.5259
19.56915 8.049494 8.863693 358.4892
19.59978 7.750683 9.513361 358.494
19.63311 7.450861 10.23661 358.4731
19.66301 6.985683 11.43947 358.4575
19.69396 6.491336 12.58074 358.516
19.72449 6.230376 13.60696 358.5564
19.75409 6.047884 14.736 358.4604
19.7854 5.794472 15.85931 358.3051
19.81639 5.589387 16.83845 358.2787
19.84515 5.473312 17.3672 358.3037
19.87605 5.174075 17.87059 358.2593
19.9056 4.719139 18.33551 358.1956
19.93653 4.204804 18.85955 358.1849
19.96604 3.659443 19.27921 358.1209
19.99586 2.759678 20.05105 358.1076
20.02835 1.292504 21.09912 358.1831
20.05857 359.8458 21.9318 358.1176
20.08765 359.4141 22.36138 358.1643
20.1166 358.9923 22.82505 358.0856
20.14799 358.3192 23.16542 357.8346
20.1809 358.0135 23.36297 357.6483
20.21129 357.6237 23.67208 357.6514
20.24463 357.0637 24.06572 357.4986
20.27482 356.7495 24.4649 357.409
20.30815 356.5728 24.79898 357.3235
20.33954 356.2061 25.15751 357.1237
20.37288 356.4685 25.22434 356.9142
20.40198 356.7266 25.26103 356.8482
20.4321 356.8155 25.20944 356.8366
20.46544 356.927 25.19802 356.7984
20.49877 356.8932 25.12857 357.0851
20.52862 356.5656 25.09439 357.2955
20.55984 356.1622 25.17924 357.1
20.59034 356.1893 25.49419 356.7019
20.62066 356.9251 25.6465 356.8076
20.65198 357.2842 25.33395 357.2464
20.68096 357.7941 25.28613 357.0563
20.71282 357.8237 25.42002 357.0851
20.74359 357.1452 25.53873 357.0437
20.77291 356.8545 25.62663 357.1884
20.80384 356.8132 25.70964 357.3323
20.83482 357.0789 25.66388 357.5207
20.86374 357.5808 25.49202 357.6841
20.89358 358.3175 25.2391 357.9424
20.92691 358.8336 24.5606 358.2182
20.95797 358.8336 23.58636 357.9915
20.98964 359.1135 22.26693 358.3508
21.02117 359.6643 20.45218 358.8019
21.04986 0.1016005 18.3433 359.0338
21.08156 0.5340278 17.04776 359.7139
21.11276 0.9506593 14.52593 0.5936588
21.14268 2.056878 11.98279 0.9049916
21.17601 3.727414 9.330009 1.375801
21.20694 5.817243 6.14259 1.981543
21.23865 7.854675 2.716042 2.433761
21.26967 8.649907 359.9616 3.200201
21.30301 8.532096 355.4991 4.578784
21.33634 8.550446 350.2118 5.013868
21.36567 9.376564 347.1428 3.187034
21.39889 9.948112 345.7985 1.725658
21.42883 9.667716 345.3052 0.8293474
21.45858 9.270859 345.8937 0.8844511
21.49192 8.924886 346.4851 1.082663
21.52091 7.738918 347.9858 1.597875
21.55272 7.577367 348.494 1.882303
21.58605 7.548916 349.6276 2.058287
21.61677 9.196267 349.6817 3.003976
21.64709 9.754358 349.6533 3.566993
21.67705 10.34558 349.3625 2.804457
21.70775 10.79538 349.1333 2.213783
21.73781 11.78505 348.5188 1.186685
21.77095 11.97465 349.5296 1.420291
21.80187 12.37869 350.4781 1.361553
21.8323 12.45139 350.5812 0.6311553
21.86195 12.47577 351.4128 359.6493
21.89276 13.12444 351.7738 359.2636
21.92277 13.77773 352.0884 358.6563
21.9527 14.0587 351.9367 358.3407
21.98173 13.90854 351.7221 358.5396
22.01152 14.06029 352.3925 358.781
22.04486 15.02826 353.3155 359.0204
22.07819 13.66163 353.6988 359.9705
22.10835 12.82133 353.1313 0.523407
22.13898 12.95108 352.2611 0.5671412
22.17232 13.86099 352.2561 359.7663
22.20287 14.94218 352.0237 358.5671
22.23291 15.11625 352.179 357.9909
22.2617 15.24413 353.3897 357.747
22.29503 15.04503 355.3258 358.3527
22.32633 14.38261 355.6914 359.1549
22.35548 14.63808 355.2812 358.8867
22.38882 14.84517 354.5879 358.9731
22.41808 14.88833 353.4 358.645
22.44798 13.93533 352.5728 358.9966
22.47807 13.31547 352.3749 359.8035
22.51133 13.14575 352.1099 0.5346577
22.54328 11.72771 352.0776 0.7986726
22.57471 13.49657 353.4323 358.7898
22.60433 15.41201 355.0166 357.2607
22.63306 15.34241 355.5581 357.0456
22.66308 16.86986 356.1855 357.5269
22.69306 19.07112 357.4191 357.4945
22.7264 18.69646 357.862 357.7521
22.7567 18.41432 358.859 356.7382
22.78668 20.87557 2.001401 356.4377
22.82002 21.45009 4.249377 357.1379
22.85065 21.97804 3.364799 357.5829
22.88179 23.27984 3.447108 356.5563
22.91102 25.75891 4.821551 355.5502
22.94092 25.66622 5.84602 355.3944
22.97107 26.29826 6.835563 354.1696
23.00133 28.91952 7.517075 352.9787
23.03197 33.36562 7.503699 351.6978
23.06368 36.25423 5.038516 350.6094
23.09349 36.85269 2.345617 348.5968
23.12436 38.68333 0.3578387 348.7283
23.15495 41.78899 358.4077 347.5766
23.18828 45.0843 356.7213 345.0887
23.21881 41.30673 357.2784 346.1235
23.24836 42.97466 358.1888 346.8136
23.2817 44.0287 0.3472669 348.7823
23.3112 41.23811 1.313547 352.2143
23.34058 38.59189 1.471699 354.0498
23.37015 36.17514 2.639857 356.2074
23.39951 34.35241 3.23786 356.9895
23.42896 32.6001 3.327089 356.692
23.45849 31.14598 2.317081 354.5716
23.49039 28.25817 1.705495 352.4282
23.52052 25.90034 1.5218 349.0706
23.55032 25.124 1.066976 346.4083
23.58067 22.87091 359.1686 343.8463
23.61321 19.95989 358.3404 342.4137
23.64654 15.55457 355.9969 340.6746
23.67987 12.27163 353.6654 339.2415
23.70943 9.048122 351.2339 338.0513
23.73846 8.269942 348.9968 337.2112
23.77072 6.561651 347.9289 337.1861
23.80037 5.238122 345.6732 337.6672
23.82962 6.06951 343.6674 337.8706
23.86029 9.624039 343.0165 338.5164
23.89293 11.83311 342.3479 338.8795
23.92283 15.64632 343.3532 336.3766
23.95348 21.60933 342.839 329.5181
23.98317 30.2112 343.678 324.8818
24.01651 36.1809 343.8239 320.4157
24.04781 42.88772 345.0057 321.2814
24.07784 45.1943 347.7064 325.3998
24.1088 49.08332 349.3248 325.1252
24.13949 49.5963 348.678 325.2484
24.17283 49.34958 347.6133 325.0886
24.20323 49.89317 346.132 324.5251
24.23431 49.89001 343.4296 323.3589
24.26549 48.69063 340.141 322.8333
24.29581 45.3865 336.0041 321.7654
24.32725 41.30044 333.6332 322.6244
24.36036 39.63629 333.2027 325.0081
24.39054 36.79152 329.7758 326.5239
24.42002 35.24224 328.4961 327.6767
24.44985 33.88049 328.3526 327.629
24.47931 30.96878 326.4251 328.5652
24.50973 29.53995 326.4419 328.8678
24.54265 27.47438 326.494 330.2596
24.57598 25.818 326.2123 332.4268
24.60538 22.97115 326.7271 334.7826
24.63558 21.12034 326.2881 335.237
24.66891 20.9686 326.8279 335.1573
24.69896 19.71106 327.8739 335.8035
24.73229 18.94247 328.2399 337.7657
24.76155 18.74876 330.3314 341.5461
24.79242 18.35439 330.138 340.5449
24.82438 18.18479 330.3744 341.0918
24.85771 18.13411 331.4334 342.2509
24.88907 18.65217 332.0639 343.6968
24.91973 19.20396 332.1057 343.4046
24.95306 18.91694 330.6452 341.5799
24.9844 20.07434 330.4681 341.8541
25.01773 21.27258 330.6545 342.353
25.05107 22.22458 330.3176 343.0577
25.08254 23.03682 330.8079 343.8732
25.11481 23.97394 330.7457 344.2334
25.1455 24.36696 330.4116 346.6207
25.17614 24.47996 330.6636 346.5525
25.20947 24.22991 330.3382 347.3264
25.2428 23.74976 330.4735 347.2953
25.27248 21.65128 330.4749 348.3889
25.30215 20.34009 329.4196 349.4488
25.33226 18.98994 328.972 349.4718
25.3631 16.22901 328.7631 349.4304
25.3958 14.03071 330.2737 347.85
25.42913 11.05635 330.8541 347.4327
25.46246 8.803782 331.3241 347.8941
25.49453 6.446361 330.6385 347.7134
25.52492 4.546487 329.1889 348.2677
25.55804 0.1319888 331.3627 348.6321
25.58907 358.335 333.1589 347.9165
25.61809 359.031 334.0197 348.9675
25.65063 359.9545 336.0875 349.1126
25.68106 353.3509 346.0804 346.4905
25.71317 348.2932 348.5999 346.8967
25.74651 348.0017 349.319 345.8318
25.77682 345.7088 348.7969 348.6486
25.80602 342.8566 348.8059 347.8683
25.83725 340.6672 349.694 348.8015
25.86739 339.5659 350.536 347.7024
25.89947 337.9564 350.9951 351.0513
25.92978 337.1555 351.6342 352.4096
25.96301 337.6697 350.9718 352.7606
25.99412 338.7547 350.1504 351.7929
26.02431 339.8071 348.5273 353.0292
26.05765 343.8867 345.9023 355.4355
26.08898 346.9196 343.6633 355.8069
26.11942 349.0658 343.5287 356.1967
26.15275 349.5797 345.7256 355.9827
26.18609 348.1902 349.3087 353.849
26.21901 347.9959 347.3563 357.1768
26.24996 348.3664 348.3995 357.1779
26.28203 347.6443 347.9612 356.5796
26.31244 348.6742 346.769 357.4664
26.3429 349.1552 346.595 354.5533
26.37409 347.5768 348.9599 354.6294
26.4038 346.6381 349.4291 351.5814
26.43443 347.2631 348.4897 351.8045
26.46559 348.7475 348.199 352.531
26.49892 351.1875 348.6967 352.8201
26.52809 351.101 349.1178 353.8759
26.55672 344.9039 352.2952 353.9761
26.58666 342.5175 352.7525 355.3984
26.61694 340.4716 353.1178 356.3184
26.64703 338.5973 352.3877 358.408
26.68036 337.2425 351.9196 1.048214
26.71353 335.7619 349.9959 5.535749
26.74536 336.5688 349.752 7.738352
26.77656 338.4095 350.9187 6.462999
26.8079 341.1622 350.5338 3.926781
26.83791 342.3309 349.6945 3.890832
26.86789 343.0254 348.6392 3.809227
26.9007 342.3456 348.1757 4.705935
26.93365 339.1294 347.9562 5.896423
26.96699 337.5608 346.2316 8.830825
26.99989 339.1093 345.7639 7.044133
27.02965 339.9818 345.2372 6.357203
27.0596 339.9796 344.864 6.472783
27.08942 338.6918 345.611 7.027561
27.12276 338.9607 344.5131 7.325905
27.15181 338.098 345.7733 6.946222
27.1833 337.717 346.8527 7.272043
27.21398 334.4398 347.1986 7.751026
27.2444 334.0791 345.5608 8.817165
27.27461 333.2858 346.8786 2.934074
27.30323 332.7344 348.2279 1.824571
27.33657 332.6785 350.5415 1.096418
27.36771 333.7485 355.2927 357.6163
27.40015 334.5487 357.4631 354.5869
27.42974 332.4785 359.1314 354.8219
27.46083 333.8719 359.0914 354.2986
27.49027 333.4591 359.0006 354.7187
27.5236 334.4235 0.349893 354.2651
27.55296 338.3414 1.629072 353.8515
27.58218 339.3392 2.689074 353.2773
27.61552 341.337 3.273432 353.1765
27.64885 344.3197 5.036541 354.0569
27.6818 344.7704 3.597362 355.927
27.71139 347.0674 2.712608 357.3455
27.74143 348.8914 1.426399 357.3145
27.77476 348.4488 2.20883 354.91
27.8081 348.3833 3.000803 354.3618
27.83791 348.9765 3.592954 353.1329
27.86714 350.373 5.324557 352.0291
27.89786 349.7375 6.217713 352.5747
27.92814 350.6914 7.197173 351.047
27.95653 353.4741 6.352495 348.3307
27.98986 348.8692 6.378475 354.2657
28.01968 349.3415 5.595175 352.7608
28.04984 349.1655 4.957344 352.0537
28.08317 352.9721 3.089482 355.6435
28.1165 351.5569 3.383276 357.0983
28.14516 352.8565 2.604939 358.1855
28.17793 353.0424 1.647237 357.9086
28.21062 352.3834 0.8575853 357.8249
28.24317 351.2999 0.6560751 358.9978
28.27317 350.6505 1.473942 0.7120807
28.30275 350.3033 2.08637 2.533516
28.332 351.4563 2.225001 2.476071
28.3631 351.2146 3.259372 0.2518703
28.39643 350.8815 3.804015 0.4758713
28.42548 351.0766 2.791688 0.5585569
28.45881 351.1309 2.877706 0.4285059
28.48849 350.7771 3.484054 0.3688385
28.51945 350.0938 3.610144 0.6660105
28.5485 349.2795 3.80373 0.4417804
28.57959 349.2648 3.41572 0.4951001
28.611 350.4637 3.148232 0.5635328
28.64252 351.6553 2.697667 0.8131798
28.6728 351.3503 2.679908 0.6930199
28.7022 350.8094 3.017535 0.6721447
28.73175 350.8346 2.934236 0.7056763
28.76231 350.7142 3.148918 0.6782059
28.79564 350.8431 3.009931 0.6928565
28.82578 350.812 3.047241 0.6975195
28.85911 350.6978 3.087285 0.7724072
28.88982 350.6473 3.077381 0.9505845
28.92316 350.662 3.127656 0.8494246
28.95497 350.7398 3.043536 0.7949231
28.9848 350.6942 3.078707 0.774394
29.01813 350.7744 3.086729 0.6814751
29.05102 350.8475 3.064464 0.6964173
29.08378 350.8141 3.100356 0.774701
29.11317 350.804 3.119917 0.7206534
29.14651 350.7869 3.103298 0.7575156
29.17966 350.7667 3.076369 0.8304839
29.20949 350.7413 3.067831 0.7486964
29.23989 350.8142 3.019518 0.7108857
29.27323 350.8429 3.075927 0.7239487
29.30328 350.7893 3.077189 0.7663564
29.33332 350.8281 3.051819 0.7223054
29.36343 350.8656 3.03395 0.6682808
29.39609 350.8834 3.031519 0.6712859
29.4253 350.869 3.022348 0.7134168
29.45563 350.8701 3.002737 0.6951081
29.48553 350.8276 2.983995 0.7408637
29.51887 350.8026 2.924546 0.8413739
29.54835 350.7917 2.900044 0.8492767
29.58169 350.738 2.876848 0.835394
29.61137 350.7119 2.834289 0.8533513
29.64046 350.6641 2.885116 0.974571
29.67241 350.5899 2.92696 1.014824
29.70233 350.5163 2.912116 1.004503
29.73177 350.4993 2.923427 1.039569
29.76175 350.5844 2.986904 0.9151144
29.79359 350.5527 3.060425 0.9534444
29.82324 350.5444 3.06682 0.9428134
29.85283 350.5208 3.06894 0.9889257
29.88518 350.5677 3.061276 0.9114295
29.91457 350.6602 3.086462 0.8096094
29.94791 350.6193 3.104876 0.851203
29.97875 350.6328 3.098139 0.8207551
30.00927 350.6724 3.087395 0.7874197
30.0426 350.7293 3.075307 0.7564494
30.07334 350.7154 3.097981 0.7347602
30.10262 350.6942 3.097734 0.7711305
30.1342 350.7755 3.111454 0.7006081
30.16491 350.7903 3.143474 0.7555032
30.19399 350.828 3.114848 0.6999498
30.22581 350.8438 3.142857 0.727086
30.25664 350.87 3.117328 0.7043639
30.28997 350.8257 3.160187 0.6761385
30.32006 350.8569 3.188425 0.6558537
30.3499 350.8983 3.169222 0.6423853
30.37967 350.8282 3.147761 0.7400462
30.41058 350.8173 3.189008 0.7005167
30.44391 350.84 3.151206 0.7220622
30.47373 350.832 3.184696 0.7687238
30.50472 350.8551 3.198619 0.7781637
30.53495 350.8757 3.224914 0.7702245
30.564 350.8458 3.206797 0.7595805
30.59561 350.8918 3.213728 0.7138319
30.62872 350.9048 3.230632 0.7461874
30.66205 350.8859 3.252787 0.8082743
30.69539 350.9241 3.259879 0.7798464
30.72589 350.9947 3.257911 0.7487998
30.75498 351.0197 3.277798 0.7425358
30.78515 351.0164 3.299822 0.7170735
30.81628 351.0126 3.29244 0.7079156
30.84564 351.0185 3.257299 0.7155592
30.87897 351.0325 3.271524 0.6896582
30.91017 350.9888 3.266572 0.72927
30.9435 350.9975 3.266088 0.6977697
30.97337 350.9861 3.248884 0.7750009
31.0067 350.9844 3.23323 0.719875
31.03679 350.941 3.25212 0.7472029
31.06914 350.9239 3.237495 0.7624475
31.09895 350.9477 3.229153 0.7789499
31.12897 350.945 3.197615 0.7539769
31.15959 350.9865 3.234367 0.7733777
31.19292 350.8933 3.292838 0.8672493
31.22625 350.9053 3.266863 0.8528089
31.25725 350.8835 3.308349 0.9199122
31.28961 350.7868 3.369886 1.004071
31.32222 350.8063 3.367945 0.9707482
31.35184 350.8507 3.373802 0.9386716
31.3817 350.8102 3.361554 1.007656
31.41414 350.8109 3.364859 0.975032
31.44618 350.8133 3.379712 0.9128909
31.47673 350.8428 3.373135 0.8369943
31.50635 350.8667 3.376688 0.7964339
31.53687 350.8748 3.381075 0.8073351
31.5672 350.8815 3.351056 0.8062112
31.59614 350.8949 3.350712 0.8222671
31.62578 350.8581 3.366397 0.8627343
31.65621 350.8094 3.348403 0.9280461
31.68612 350.7878 3.344248 0.9410514
31.7164 350.7573 3.337876 0.9401202
31.74599 350.8055 3.340909 0.9134732
31.77932 350.7489 3.356792 1.043884
31.80865 350.6649 3.396279 1.10454
31.84198 350.6237 3.395275 1.149109
31.87321 350.5493 3.446984 1.180639
31.9051 350.6035 3.434674 1.091944
31.93572 350.5808 3.402946 1.117532
31.96706 350.6394 3.412091 1.059291
31.99943 350.6623 3.449638 0.9884287
32.03151 350.6552 3.400153 1.022134
32.06078 350.6812 3.412336 1.005719
32.09197 350.7 3.408142 0.9973606
32.12142 350.772 3.4341 0.9622185
32.15475 350.7855 3.42903 0.856025
32.18418 350.7992 3.425202 0.8610612
32.21471 350.7829 3.496142 0.9299133
32.24799 350.7631 3.482959 0.9458683
32.27881 350.7017 3.479403 0.9691733
32.31215 350.6493 3.522025 0.993682
32.34548 350.6384 3.520441 1.00212
32.37484 350.6595 3.532962 0.9557532
32.40474 350.6701 3.498829 0.9598865
32.43449 350.6754 3.525257 0.9063894
32.46572 350.6683 3.525591 0.8935668
32.49527 350.6909 3.535078 0.841304
32.52431 350.6897 3.518065 0.8280374
32.55765 350.7401 3.517694 0.8435339
32.59098 350.7375 3.452418 0.9179351
32.62141 350.5897 3.436534 1.126839
32.65474 350.5879 3.459648 1.141276
32.68808 350.492 3.497079 1.176533
32.72141 350.3615 3.649341 1.169278
32.75128 350.593 3.468386 1.224193
32.78204 350.4965 3.516857 1.131244
32.81096 350.4292 3.585398 1.155234
32.84061 350.4793 3.552597 1.087437
32.87001 350.5817 3.44993 1.088975
32.90334 350.6005 3.464527 1.044441
32.9355 350.482 3.604937 1.051265
32.96564 350.45 3.626489 1.029166
32.99897 350.5754 3.581882 1.08081
33.02887 350.5439 3.548128 1.113676
33.06021 350.3968 3.705926 1.073248
33.09138 350.5221 3.595746 1.043526
33.12471 350.5925 3.527096 1.053056
33.15413 350.4839 3.675602 1.058943
33.18445 350.534 3.656563 1.018173
33.21778 350.5494 3.644588 1.01844
33.24957 350.5079 3.650594 1.060739
33.2829 350.6296 3.581282 1.016707
33.31241 350.4402 3.697326 1.011138
33.34574 350.4922 3.660353 0.9688858
33.37558 350.6591 3.563627 0.9580764
33.40708 350.5884 3.664638 0.9088116
33.43765 350.5817 3.667138 0.9543607
33.46872 350.5839 3.648698 0.9501939
33.49923 350.6148 3.643219 0.9331161
33.53256 350.6408 3.579114 0.937351
33.56589 350.6139 3.620758 0.9701132
33.59502 350.472 3.743062 0.9945823
33.6268 350.502 3.702215 1.134542
33.6573 350.4879 3.639066 1.12024
33.687 350.3929 3.7119 1.054585
33.71761 350.4598 3.692277 1.072061
33.74628 350.3716 3.724044 1.108181
33.77613 350.3818 3.771987 1.080295
33.80556 350.5225 3.710455 1.014139
33.83556 350.4742 3.738814 1.054761
33.86556 350.3772 3.812907 1.099385
33.89889 350.4408 3.81331 1.065894
33.93223 350.5036 3.747543 1.053538
33.96326 350.4909 3.765249 1.06102
33.99659 350.5208 3.764647 1.024656
34.02645 350.4869 3.772514 1.041368
34.05679 350.4635 3.791364 1.12632
34.08728 350.5633 3.684329 1.105589
34.11621 350.5137 3.736108 1.035463
34.14806 350.5275 3.811333 0.9595001
34.17731 350.5241 3.78397 0.971693
34.20974 350.5915 3.735002 0.9905909
34.23891 350.5616 3.750435 0.9774087
34.27224 350.5439 3.767666 0.949459
34.30238 350.4932 3.765971 0.9731769
34.33571 350.4921 3.793714 0.958752
34.36537 350.649 3.664201 0.9982697
34.39573 350.6187 3.701658 1.007663
34.42906 350.4685 3.790017 1.046415
34.45811 350.4434 3.811452 1.084853
34.48738 350.4809 3.788131 1.090798
34.51821 350.4955 3.823512 1.086591
34.54959 350.4823 3.800865 1.162552
34.5792 350.355 3.91485 1.108161
34.61155 350.4049 3.922255 1.110929
34.64488 350.459 3.801038 1.096977
34.67372 350.3905 3.868022 1.071254
34.70479 350.3208 3.916461 1.10619
34.73628 350.3584 3.912767 1.071344
34.76801 350.3775 3.875681 1.029747
34.79808 350.3819 3.852797 1.020271
34.82816 350.4037 3.874435 1.006186
34.8567 350.3819 3.896178 0.978424
34.88642 350.463 3.856808 0.9168121
34.91815 350.5528 3.83506 0.9251038
34.94745 350.4989 3.835304 0.94915
34.98078 350.4524 3.8761 0.9935544
35.01354 350.5136 3.878656 0.9859424
35.04687 350.4689 3.872526 1.001288
35.07828 350.464 3.878035 0.9921346
35.11161 350.4461 3.942936 1.002915
35.14095 350.4086 3.953625 0.9791552
35.17378 350.476 3.890702 0.9510984
35.20712 350.4938 3.941418 0.980249
35.2366 350.4451 3.93999 1.035669
35.26621 350.4433 3.900004 1.039515
35.2981 350.4485 3.864392 1.053717
35.33004 350.4563 3.890195 1.018358
35.36338 350.554 3.870256 0.9362873
35.39559 350.5595 3.8426 0.9922201
35.42778 350.5332 3.894776 0.9670458
35.45806 350.6215 3.865423 0.9487994
35.49139 350.6536 3.826568 0.9661391
35.52473 350.6395 3.857951 0.9354759
35.55398 350.6894 3.863902 0.8696939
35.58731 350.7604 3.833003 0.9045424
35.61745 350.8036 3.807474 0.8431631
35.64705 350.7862 3.792949 0.8202147
35.6786 350.768 3.806781 0.7977695
35.70852 350.8111 3.790221 0.7772766
35.73824 350.8506 3.768837 0.7680027
35.7672 350.8142 3.737871 0.8159544
35.79689 350.7779 3.774646 0.8261126
35.82654 350.82 3.753997 0.851247
35.85987 350.7692 3.763737 0.8781046
35.88916 350.7107 3.776634 0.9782063
35.9225 350.6185 3.788252 1.074617
35.95583 350.6244 3.843189 1.037713
35.98576 350.6341 3.806383 0.9824703
36.0191 350.6232 3.830786 0.9750316
36.04821 350.6523 3.831141 0.9639494
36.07716 350.6394 3.81613 0.9561434
36.108 350.5707 3.792529 1.02837
36.13731 350.5671 3.819124 1.071849
36.16646 350.548 3.842693 1.058968
36.19655 350.4994 3.86526 1.208623
36.22602 350.4709 3.870797 1.243404
36.2549 350.4605 3.863538 1.200622
36.28542 350.4643 3.887783 1.132737
36.31469 350.4715 3.868711 1.123759
36.34701 350.489 3.874477 1.060953
36.37762 350.4926 3.830474 1.106423
36.40735 350.5297 3.821396 1.038065
36.43651 350.5737 3.812575 1.003455
36.46984 350.5338 3.856337 1.039958
36.50002 350.5346 3.845475 1.062301
36.53104 350.5623 3.834272 1.019316
36.56049 350.5986 3.81712 0.9981101
36.59382 350.635 3.80834 0.9711812
36.62305 350.5767 3.873828 1.026076
36.65366 350.6598 3.866617 0.9534755
36.68412 350.6649 3.864696 0.9595488
36.71745 350.7089 3.809301 0.9477303
36.75079 350.6882 3.856705 0.9717044
36.78299 350.7669 3.826393 0.9125288
36.81254 350.7334 3.885556 0.9407494
36.84224 350.7435 3.864009 0.919822
36.87348 350.6842 3.852787 0.9594471
36.90291 350.7071 3.845782 0.9467427
36.93366 350.7318 3.851231 0.931161
36.96352 350.7116 3.808745 0.9716266
36.99257 350.6772 3.820312 1.00222
37.02591 350.7169 3.780105 0.9911113
37.05924 350.7259 3.795779 0.9704792
37.0887 350.6874 3.778575 0.9982846
37.12203 350.6955 3.785646 0.9720207
37.15408 350.7363 3.789287 0.9085575
37.18741 350.7113 3.8506 0.9479164
37.21647 350.6096 3.892008 1.072003
37.24597 350.6543 3.867299 1.08389
37.279 350.618 3.904765 1.149409
37.30868 350.6496 3.899452 1.107373
37.34201 350.6487 3.899098 1.085552
37.37525 350.6967 3.881674 1.030202
37.40705 350.6804 3.879592 0.9730204
37.43663 350.6716 3.861138 0.9734932
37.46996 350.7202 3.834824 0.9324086
37.49997 350.7063 3.816979 0.9467769
37.53129 350.6531 3.814113 0.9746485
37.56194 350.6513 3.787188 0.9906539
37.59163 350.6618 3.75097 1.019038
37.62374 350.6533 3.74472 1.015556
37.65336 350.6807 3.733782 0.9942803
37.68507 350.7394 3.736191 0.9338865
37.71426 350.6921 3.762884 0.9710835
37.74316 350.7184 3.728169 0.9694233
37.77335 350.7261 3.743469 0.9173844
37.80668 350.7458 3.764896 0.8993608
37.83689 350.7593 3.731505 0.8945006
37.86695 350.7402 3.716983 0.9317123
37.8985 350.676 3.733109 0.9715551
37.93163 350.6599 3.758321 0.9741607
37.96268 350.6629 3.726864 1.016364
37.99549 350.7063 3.731218 0.9976075
38.02499 350.6417 3.767173 1.073663
38.05502 350.6197 3.757162 1.080401
38.08458 350.5882 3.797925 1.059441
38.11314 350.6322 3.77048 1.032038
38.14647 350.6278 3.749036 1.018229
38.17578 350.546 3.758554 1.091238
38.20911 350.5641 3.76066 1.063111
38.23898 350.5272 3.698463 1.115529
38.2707 350.558 3.721175 1.0398
38.30067 350.5867 3.741277 1.014636
38.33401 350.5916 3.740467 0.9590781
38.36677 350.5824 3.758274 1.010394
38.39648 350.6179 3.733084 1.014056
38.42574 350.5501 3.770956 1.0641
38.45907 350.5709 3.789885 0.9956544
38.49197 350.6094 3.767255 0.9761161
38.5253 350.6409 3.758227 0.955052
38.55711 350.5983 3.735145 1.006607
38.58907 350.5473 3.764241 1.020834
38.62224 350.5927 3.77274 1.011699
38.65269 350.608 3.779029 0.9387563
38.68513 350.6356 3.767785 0.9493223
38.71847 350.6479 3.752283 0.9652759
38.74942 350.6326 3.751165 0.9820747
38.77967 350.6218 3.801132 1.02277
38.813 350.6401 3.817179 0.9598213
38.84277 350.6128 3.814974 0.9846468
38.87114 350.5968 3.819486 0.9913245
38.90089 350.5964 3.845029 1.012961
38.93094 350.6116 3.80736 1.028438
38.9632 350.5425 3.861642 1.090651
38.99588 350.5386 3.828789 1.081041
39.02922 350.5554 3.806802 1.04689
39.06255 350.4888 3.841359 1.079185
39.09224 350.4337 3.792346 1.089911
39.12247 350.4308 3.786103 1.074538
39.1558 350.4325 3.794041 1.073978
39.18914 350.3958 3.82692 1.140023
39.21914 350.4378 3.804412 1.093149
39.25247 350.4427 3.786091 1.047503
39.2858 350.4489 3.80918 1.072062
39.31546 350.3889 3.815166 1.18568
39.34879 350.445 3.808342 1.125547
39.37789 350.4721 3.792495 1.08488
39.40911 350.4258 3.809311 1.139874
39.44039 350.4389 3.800039 1.149338
39.47058 350.4804 3.740692 1.083187
39.49968 350.5458 3.757932 1.033476
39.52923 350.5085 3.736852 1.085082
39.5613 350.5322 3.754075 1.039572
39.59108 350.5802 3.742639 1.017646
39.62411 350.6277 3.738865 0.9436819
39.65379 350.6113 3.682405 1.001008
39.68712 350.5814 3.732109 1.039652
39.71614 350.5656 3.686438 1.053863
39.74646 350.5557 3.685104 1.043739
39.77705 350.5995 3.670085 1.035477
39.80574 350.5435 3.655517 1.067507
39.83764 350.5043 3.665205 1.066727
39.87097 350.5116 3.642977 1.097727
39.90431 350.5796 3.656728 0.9914414
39.93764 350.5478 3.664189 1.03977
39.96709 350.5394 3.656472 1.082575
40.00037 350.5704 3.642256 1.007444
40.03371 350.5526 3.640741 1.02693
40.06334 350.5919 3.59977 0.9934976
40.09355 350.6042 3.623286 0.9899211
40.12688 350.6664 3.629446 0.9966666
40.16021 350.6751 3.602203 0.9624338
40.1895 350.6983 3.596628 0.9804323
40.21938 350.6756 3.599372 0.9741806
40.24903 350.621 3.588475 0.9844822
40.27818 350.6548 3.57914 0.9781145
40.31083 350.6732 3.565255 0.9499884
40.341 350.6766 3.546856 0.934767
40.3702 350.6918 3.520329 0.8912661
40.40266 350.6871 3.522814 0.9455521
40.43599 350.6346 3.538021 1.02744
40.46881 350.6125 3.538946 1.066332
40.49848 350.5367 3.533624 1.129407
40.53181 350.5717 3.555695 1.091967
40.55986 350.5734 3.620063 1.156276
40.5901 350.5094 3.645239 1.16018
40.62344 350.5024 3.683269 1.141127
40.65677 350.4532 3.650047 1.210461
40.6901 350.4829 3.643561 1.135738
40.7225 350.4723 3.623543 1.126845
40.75184 350.4735 3.632466 1.148253
40.7814 350.4731 3.643324 1.119752
40.81473 350.4725 3.617899 1.136029
40.8468 350.4337 3.607476 1.132311
40.87595 350.4873 3.604877 1.090475
40.90554 350.4368 3.600917 1.130919
40.93766 350.4498 3.600342 1.109704
40.97099 350.5005 3.595299 1.0744
41.00352 350.5236 3.599018 1.060105
41.03237 350.5385 3.56702 1.050676
41.06381 350.5269 3.57666 1.033996
41.09714 350.5639 3.585767 0.9808079
41.12825 350.584 3.538429 1.008901
41.16024 350.5439 3.562366 1.010407
41.19358 350.55 3.529366 1.049108
41.22339 350.5067 3.531459 1.100634
41.25673 350.4536 3.549282 1.150142
41.29006 350.4801 3.573708 1.086304
41.32339 350.488 3.548748 1.129964
41.35673 350.4674 3.516065 1.151875
41.38862 350.5116 3.522049 1.078894
41.41886 350.5711 3.509921 1.009002
41.45162 350.5532 3.491407 1.025137
41.48315 350.5638 3.473933 1.059024
41.51645 350.5793 3.455814 1.042352
41.54576 350.5815 3.51075 1.027492
41.57498 350.5457 3.521054 1.126979
41.60711 350.5437 3.544059 1.110412
41.64045 350.4994 3.532182 1.161599
41.67378 350.5459 3.540648 1.077778
41.70711 350.5547 3.547477 1.03793
41.74044 350.5486 3.546979 1.031674
41.77053 350.5652 3.546248 1.012654
41.79905 350.5883 3.557117 0.9997079
41.83231 350.5803 3.552577 0.9768317
41.8642 350.5994 3.540363 0.9806231
41.89471 350.5692 3.545197 0.9994448
41.92805 350.5619 3.571252 0.9820524
41.95982 350.5721 3.586362 1.068024
41.98917 350.5241 3.589128 1.098542
42.02081 350.5309 3.564199 1.094738
42.05112 350.4823 3.610651 1.176321
42.0806 350.5073 3.590769 1.147276
42.11393 350.5353 3.647991 1.036048
42.14608 350.544 3.663374 1.087948
42.17942 350.4532 3.686392 1.109612
42.21275 350.4569 3.664478 1.0896
42.24409 350.4563 3.634449 1.074989
42.27433 350.4096 3.649642 1.052057
42.30487 350.4309 3.644886 1.084111
42.33746 350.448 3.600214 1.069127
42.36783 350.4701 3.58301 1.038617
42.40117 350.5029 3.605952 0.9646387
42.43278 350.5738 3.580913 0.9173995
42.46275 350.5645 3.57105 0.9256818
42.49241 350.5451 3.556162 0.9738845
42.52226 350.5435 3.509356 0.9932671
42.55455 350.5641 3.49925 1.044491
42.58468 350.5693 3.498885 1.020186
42.61802 350.5932 3.496704 0.997273
42.64768 350.5559 3.483738 1.019078
42.67974 350.6337 3.455232 0.9987195
42.71307 350.6462 3.459712 1.016246
42.74238 350.6643 3.533891 1.003272
42.77469 350.6831 3.497395 0.9964001
42.80803 350.6826 3.516113 1.004088
42.83923 350.6986 3.511702 0.99185
42.86999 350.6904 3.491498 0.9760903
42.90108 350.6819 3.488832 1.039177
42.93183 350.6966 3.480983 1.015403
42.9616 350.7253 3.491932 0.9832052
42.99221 350.6855 3.455954 1.018211
43.02143 350.6883 3.396136 1.038793
43.05137 350.6917 3.420733 0.9801251
43.08083 350.7033 3.391667 1.006189
43.11149 350.7025 3.402355 1.002526
43.14296 350.671 3.416659 1.008791
43.17284 350.6436 3.377073 1.033298
43.20172 350.6171 3.424548 1.050484
43.23434 350.6127 3.407749 1.046607
43.26768 350.6204 3.361331 1.028298
43.29668 350.6464 3.374951 1.010506
43.32659 350.608 3.360082 0.9973008
43.35718 350.6649 3.356117 0.9773731
43.38786 350.6412 3.359141 1.002071
43.41885 350.6261 3.386443 1.016561
43.4485 350.599 3.385926 1.050021
43.48116 350.5991 3.434814 1.067344
43.51063 350.6109 3.404283 1.040057
43.5401 350.5928 3.405212 1.09014
43.56985 350.6543 3.410814 1.03663
43.59977 350.6393 3.380922 1.04688
43.62933 350.6242 3.416208 1.075235
43.65821 350.6345 3.374399 1.092311
43.69014 350.5673 3.384082 1.121884
43.71954 350.5211 3.420171 1.17433
43.74913 350.4913 3.419028 1.170364
43.78107 350.4789 3.429099 1.190295
43.81441 350.4217 3.430338 1.244376
43.84335 350.4066 3.462711 1.2911
43.87592 350.388 3.486072 1.26581
43.90615 350.3425 3.500723 1.267235
43.93536 350.3448 3.463108 1.278142
43.96869 350.3283 3.43146 1.241416
43.99881 350.4093 3.426461 1.142911
44.03214 350.4302 3.413388 1.155139
44.06422 350.4398 3.391387 1.144024
44.09711 350.4699 3.405081 1.097248
44.12879 350.4803 3.386224 1.10929
44.16198 350.4633 3.413282 1.185925
44.19447 350.4765 3.410967 1.105092
44.22342 350.4999 3.42137 1.092002
44.25424 350.5332 3.382193 1.111023
44.28757 350.5933 3.378928 1.027291
44.3167 350.5485 3.414695 1.077087
44.3485 350.5806 3.420907 1.023548
44.37917 350.5849 3.427818 1.008995
44.40873 350.6155 3.440405 0.9652807
44.43856 350.6434 3.412505 0.9273949
44.4706 350.606 3.428109 1.005893
44.50162 350.6269 3.445095 0.9784729
44.53398 350.6473 3.467161 0.9974403
44.56731 350.6574 3.467047 0.9731338
44.59934 350.6052 3.475783 1.068211
44.63011 350.5794 3.466068 1.045295
44.66099 350.5927 3.492519 1.07079
44.68991 350.6018 3.501993 1.007155
44.7219 350.627 3.492812 0.9897223
44.75261 350.6288 3.484337 1.000048
44.78109 350.6588 3.450009 0.9614577
44.81145 350.6558 3.459721 0.9487419
44.8423 350.6526 3.435479 0.9662771
44.87563 350.6669 3.446038 0.9616233
44.90619 350.6793 3.414662 0.927707
44.93554 350.722 3.371498 0.9101771
44.96887 350.7111 3.39326 0.9184832
44.99805 350.7086 3.370031 0.8881266
45.03031 350.7146 3.380566 0.8752707
45.06069 350.7496 3.375943 0.8511728
45.08997 350.7804 3.376005 0.8698295
45.11976 350.763 3.351939 0.8783149
45.14922 350.8157 3.365249 0.8580841
45.18168 350.8002 3.33593 0.9462262
45.21238 350.8123 3.329709 0.9469473
45.24571 350.7945 3.310049 0.9547176
45.27713 350.8062 3.332678 0.9183213
45.30869 350.7483 3.38401 0.9961418
45.34202 350.7407 3.414714 1.009026
45.37344 350.7587 3.417611 0.9943485
45.40678 350.7743 3.424548 0.9610092
45.43565 350.795 3.40049 0.9465921
45.46898 350.8181 3.409511 0.9420988
45.49806 350.7875 3.381684 0.9211228
45.52703 350.8299 3.372208 0.9175277
45.55751 350.8179 3.388955 0.9623295
45.59084 350.7914 3.410334 0.9446855
45.62328 350.8022 3.331743 0.955441
45.65567 350.8075 3.314323 0.9329817
45.68855 350.8529 3.308602 0.9059859
45.72084 350.8436 3.297033 0.9091395
45.75237 350.8901 3.311102 0.9106438
45.7857 350.8613 3.30191 0.89897
45.81468 350.8756 3.306933 0.8950593
45.84601 350.8857 3.279405 0.9102291
45.87637 350.8677 3.34919 0.9792336
45.90599 350.8544 3.327409 0.9816113
45.93586 350.8866 3.299005 0.9341642
45.9668 350.8757 3.311743 0.8960389
45.99537 350.8885 3.286514 0.9123437
46.0287 350.8823 3.280814 0.9376557
46.05803 350.8866 3.312561 0.9247378
46.09137 350.8721 3.341496 0.8877608
46.12259 350.838 3.323837 0.919027
46.15593 350.8449 3.3172 0.9397563
46.18773 350.8636 3.311053 0.9109977
46.21751 350.8213 3.287339 0.9691685
46.24785 350.7507 3.326283 1.038739
46.27744 350.7305 3.31762 1.045288
46.30711 350.7209 3.272576 1.042063
46.34044 350.7319 3.315091 1.058997
46.37026 350.7838 3.305114 1.006773
46.40047 350.7748 3.297276 0.9655772
46.4338 350.7751 3.277566 1.018325
46.46413 350.7409 3.310192 1.051738
46.49616 350.7372 3.275686 1.063363
46.52552 350.7353 3.290593 1.048556
46.55593 350.7309 3.265922 1.022722
46.58556 350.7652 3.265645 0.9874611
46.6185 350.7283 3.235203 0.9805921
46.65183 350.702 3.228759 0.9910288
46.68517 350.6963 3.297898 1.046686
46.71698 350.6697 3.281543 1.122017
46.74652 350.6714 3.303915 1.127018
46.77795 350.6897 3.307979 1.093471
46.80896 350.6719 3.327852 1.135809
46.84096 350.6732 3.311508 1.096966
46.87268 350.6266 3.347832 1.181196
46.90277 350.6112 3.320031 1.206809
46.93274 350.6492 3.324768 1.117141
46.96242 350.6 3.317142 1.170147
46.99272 350.6082 3.302703 1.155496
47.02383 350.587 3.305471 1.184738
47.05691 350.641 3.28652 1.119715
47.08626 350.6167 3.317357 1.12007
47.11959 350.6268 3.340442 1.07379
47.15152 350.6124 3.295534 1.071752
47.18139 350.6015 3.30608 1.084069
47.21022 350.5741 3.271131 1.141309
47.24255 350.4964 3.336903 1.179999
47.27449 350.5178 3.315265 1.173388
47.30536 350.5306 3.296511 1.168415
47.33547 350.5244 3.342763 1.124575
47.3688 350.5713 3.336858 1.11424
47.39882 350.6175 3.31788 1.08645
47.43181 350.6982 3.327286 0.9953727
47.46272 350.7117 3.343827 0.9523849
47.4918 350.7282 3.351789 0.9232865
47.52513 350.7159 3.393764 0.9713103
47.55789 350.691 3.399889 0.9338214
47.59111 350.6676 3.341753 0.9997873
47.62444 350.6847 3.349806 1.012535
47.65778 350.705 3.331981 1.000903
47.68784 350.7226 3.388445 0.9824201
47.71812 350.6982 3.42302 1.021448
47.75145 350.6992 3.422396 1.027734
47.78104 350.6614 3.485899 1.053779
47.81063 350.6749 3.422712 1.03739
47.84397 350.6776 3.41905 1.0085
47.87288 350.67 3.445518 1.029252
47.90413 350.6601 3.431803 1.035334
47.93411 350.6065 3.464594 1.148623
47.96307 350.6008 3.420542 1.086127
47.99292 350.6607 3.462999 0.9710053
48.02292 350.666 3.442339 1.019346
48.05603 350.6881 3.428134 0.9884579
48.08936 350.7215 3.412455 0.9392553
48.11877 350.7701 3.406292 0.9501136
48.14762 350.7846 3.409268 0.9358074
48.17929 350.8267 3.351186 0.9233012
48.20932 350.8438 3.367361 0.8386569
48.24092 350.8795 3.371174 0.8198583
48.27019 350.8712 3.3527 0.8310723
48.30096 350.8787 3.351635 0.8452726
48.33324 350.8732 3.302253 0.8439156
48.36262 350.8515 3.353514 0.9057787
48.3948 350.8136 3.342785 0.9566586
48.4238 350.7593 3.382077 1.072379
48.45713 350.8303 3.356833 0.9687937
48.48646 350.8038 3.364609 0.9570845
48.51569 350.757 3.402356 1.009079
48.54791 350.7394 3.35769 1.006894
48.57809 350.7034 3.35353 0.9933863
48.60738 350.7404 3.310555 0.965943
48.63815 350.7888 3.289364 0.930991
48.67149 350.7603 3.350182 0.9867711
48.70269 350.7307 3.362795 0.9381456
48.7329 350.789 3.335137 0.9355028
48.76623 350.7633 3.342066 0.958097
48.7956 350.789 3.289843 0.9692906
48.82523 350.7641 3.342186 1.030175
48.85544 350.7612 3.355736 1.027984
48.88428 350.7871 3.335363 0.978408
48.91493 350.821 3.326905 0.9677215
48.94623 350.8558 3.271691 0.9140726
48.97624 350.8879 3.24362 0.9036635
49.006 350.8293 3.288627 0.9803379
49.03809 350.8476 3.286248 0.9362379
49.06802 350.8062 3.247576 0.9649355
49.10135 350.7638 3.229689 0.9945813
49.13469 350.8147 3.216242 0.9448512
49.16413 350.893 3.243371 0.8891408
49.19468 350.8739 3.217537 0.9165074
49.22457 350.8811 3.189339 0.9002348
49.2558 350.894 3.182477 0.867331
49.28913 350.9363 3.144605 0.8491843
49.32132 350.882 3.163493 0.9253283
49.35093 350.8587 3.207549 0.9879492
49.38247 350.8738 3.185916 1.013351
49.4117 350.8238 3.193546 1.004221
49.44217 350.8115 3.184844 1.02956
49.47239 350.7685 3.171411 1.080503
49.50573 350.7719 3.146024 1.030136
49.53563 350.779 3.180978 0.9764732
49.56543 350.7752 3.196557 0.993767
49.59877 350.8307 3.173591 0.9465065
49.62838 350.8416 3.169013 0.9270858
49.65779 350.8405 3.181644 0.935168
49.68728 350.7719 3.21094 0.970977
49.72062 350.7941 3.180471 0.969155
49.75063 350.7946 3.153617 0.9516603
49.77973 350.8347 3.147199 0.9055344
49.81224 350.825 3.188435 0.9580371
49.84198 350.8046 3.162585 0.9755039
49.87307 350.8149 3.163055 1.012564
49.90559 350.7689 3.2056 1.060779
49.93892 350.757 3.204367 1.017943
49.9695 350.7773 3.251975 1.015032
49.99931 350.7732 3.226846 1.015907
50.02931 350.7012 3.264433 1.061185
50.06264 350.7111 3.246696 1.068448
50.09209 350.7766 3.21781 1.006639
50.12307 350.8125 3.209951 0.9320017
50.15544 350.8109 3.243826 0.9644483
50.18613 350.7881 3.18998 0.9728643
50.21629 350.7976 3.188071 0.972385
50.24633 350.8092 3.191582 0.9516358
50.27967 350.8564 3.198887 0.9133374
50.30926 350.8479 3.200979 0.9192969
50.34006 350.817 3.221694 0.9470103
50.37339 350.8306 3.229425 0.959843
50.4027 350.8763 3.265743 0.8591523
50.43553 350.9044 3.255646 0.8416428
50.46651 350.8692 3.245227 0.8696615
50.49628 350.8688 3.241441 0.8552842
50.52961 350.8619 3.219886 0.9031837
50.55866 350.852 3.223815 0.8676515
50.592 350.8499 3.231919 0.8677878
50.62533 350.8355 3.198053 0.8963683
50.65564 350.7852 3.194141 0.976842
50.68615 350.7371 3.173201 1.002673
50.71775 350.7486 3.194601 1.027466
50.74687 350.7391 3.209824 1.022127
50.77731 350.7674 3.214759 0.9637774
50.81065 350.788 3.160996 0.9474181
50.83996 350.8142 3.167936 0.9115664
50.87275 350.8172 3.164432 0.9169065
50.90608 350.8476 3.157158 0.9403142
50.93513 350.8447 3.130777 0.9278708
50.96473 350.8992 3.153403 0.8804211
50.99497 350.8811 3.145984 0.9033328
51.02367 350.8447 3.125101 0.9360824
51.0533 350.7928 3.141128 1.013631
51.0853 350.7643 3.160102 1.012966
51.11469 350.7703 3.151907 1.015608
51.14794 350.7466 3.143798 1.016598
51.17864 350.7405 3.12648 0.9577942
51.20994 350.7526 3.146558 0.9829128
51.24127 350.7588 3.136987 0.9606919
51.2746 350.7696 3.172734 0.9359583
51.30338 350.811 3.150847 0.9125667
51.33425 350.8091 3.147294 0.9019788
51.36689 350.8159 3.142429 0.8888929
51.39751 350.8049 3.118698 0.8996533
51.42666 350.8343 3.141424 0.8615022
51.45629 350.8844 3.098842 0.8514437
51.48593 350.8864 3.121014 0.829082
51.51543 350.9278 3.101075 0.8048453
51.5452 350.8578 3.206944 0.8648833
51.57853 350.8662 3.158027 0.8459585
51.6091 350.8386 3.23717 0.8891928
51.64243 350.8517 3.210422 0.8932157
51.67202 350.8628 3.175263 0.9075119
51.70392 350.8662 3.202503 0.9409232
51.7331 350.9186 3.173812 0.9136575
51.76435 350.9423 3.181118 0.8892672
51.7948 350.9847 3.162315 0.8603157
51.8254 350.9696 3.164188 0.8860863
51.85492 350.8943 3.148294 0.9617867
51.88559 350.9343 3.142883 0.9344604
51.9168 350.9562 3.143278 0.8877424
51.94791 350.9268 3.124904 0.8671977
51.98124 350.8769 3.196485 0.9883941
52.01457 350.7814 3.201378 1.016608
52.04502 350.7066 3.218476 1.096355
52.07436 350.6402 3.233297 1.155984
52.10455 350.584 3.262409 1.191926
52.13405 350.5705 3.267563 1.145635
52.16629 350.5519 3.252369 1.153793
52.19533 350.5644 3.317534 1.097774
52.22866 350.5903 3.313268 1.101922
52.25998 350.5922 3.361326 1.073326
52.28922 350.5888 3.337265 1.094141
52.32255 350.5988 3.312383 1.104836
52.35287 350.6302 3.325991 1.05715
52.38271 350.5974 3.311521 1.057288
52.41604 350.5637 3.319718 1.105218
52.44593 350.5439 3.330708 1.095261
52.47547 350.5775 3.317819 1.019757
52.50766 350.6045 3.344227 0.9894285
52.53875 350.6705 3.343268 0.9210439
52.5694 350.6849 3.316335 0.9167143
52.59951 350.7076 3.358442 0.9592984
52.63171 350.7071 3.364789 0.9939128
52.66333 350.662 3.406607 1.025399
52.69666 350.662 3.327576 0.9840779
52.7283 350.6626 3.321618 1.021441
52.76096 350.7082 3.29159 0.9397401
52.79093 350.7901 3.286298 0.9212429
52.82016 350.7726 3.254912 0.9421945
52.85318 350.7926 3.262332 0.9091241
52.88281 350.7831 3.304611 0.9386318
52.91385 350.7921 3.291995 0.9262662
52.94718 350.7878 3.281852 0.9368534
52.97594 350.7544 3.266266 0.9292689
53.0076 350.7823 3.250879 0.9202344
53.03952 350.8186 3.273459 0.9344407
53.06824 350.7906 3.284821 0.9400567
53.09838 350.8002 3.267388 0.8951394
53.13171 350.7901 3.251695 0.9426146
53.16201 350.8037 3.224302 0.9300629
53.19185 350.8047 3.204741 0.929497
53.22203 350.8483 3.209663 0.9243511
53.25139 350.8354 3.259653 0.8993266
53.28291 350.8415 3.265029 0.8875419
53.31286 350.8116 3.250206 0.9724678
53.34584 350.8363 3.226997 0.9880326
53.37583 350.7751 3.215209 1.014423
53.40538 350.7674 3.204437 0.9728075
53.43441 350.7971 3.171888 0.9959104
53.46525 350.7955 3.183424 0.9697281
53.49858 350.8488 3.178997 0.9246765
53.52687 350.7941 3.156935 1.005596
53.55905 350.772 3.2025 1.022153
53.59098 350.729 3.167866 1.142513
53.62167 350.6818 3.16481 1.167793
53.65232 350.6717 3.196278 1.206693
53.68566 350.6632 3.178493 1.167715
53.7188 350.6536 3.164515 1.18033
53.75213 350.5738 3.186591 1.250036
53.78348 350.566 3.195546 1.185244
53.81285 350.5475 3.194647 1.185943
53.84344 350.5582 3.15582 1.146928
53.87262 350.6204 3.191949 1.121217
53.90532 350.6393 3.20472 1.064713
53.93505 350.6632 3.192084 1.055699
53.96839 350.6905 3.2119 0.9977655
53.99696 350.6957 3.206759 1.012845
54.02617 350.7574 3.191427 0.9630702
54.05643 350.7888 3.169173 0.9294118
54.08623 350.831 3.177574 0.9017889
54.11575 350.88 3.121131 0.8949849
54.14731 350.8944 3.152608 0.8600053
54.17785 350.9185 3.174912 0.8469588
54.20785 350.9214 3.169209 0.8738502
54.2388 350.9564 3.123175 0.8523268
54.26784 350.9802 3.135437 0.8539103
54.29704 350.9923 3.152153 0.8528186
54.32643 350.8983 3.169537 0.9441571
54.35603 350.899 3.12279 0.9769874
54.38649 350.9241 3.172643 0.9393857
54.41853 350.8842 3.146876 0.9781727
54.44902 350.9293 3.150018 0.9027174
54.48024 350.9742 3.152882 0.8352665
54.5106 350.9887 3.147837 0.8525463
54.54102 350.9806 3.142482 0.8337641
54.57094 350.9947 3.134161 0.8480862
54.60167 350.9998 3.105693 0.8101825
54.63177 350.9871 3.124457 0.9138107
54.66511 350.9731 3.102658 0.8930106
54.69844 350.9901 3.078964 0.8796094
54.73178 350.9169 3.102252 0.9693785
54.76437 350.8925 3.095162 0.9677898
54.79674 350.8679 3.081964 1.008179
54.8256 350.8159 3.061573 1.024002
54.857 350.8337 3.095974 1.053178
54.89006 350.8046 3.090041 1.018521
54.91846 350.7988 3.11096 1.000723
54.94913 350.7565 3.109016 1.075086
54.97882 350.7416 3.096356 1.05378
55.01134 350.7314 3.124234 1.056333
55.04467 350.6929 3.107234 1.104599
55.07571 350.6643 3.09532 1.118798
55.10455 350.7021 3.088637 1.088482
55.13588 350.706 3.118936 1.092904
55.16585 350.7091 3.108225 1.121073
55.19918 350.747 3.107698 1.036947
55.23251 350.7399 3.081524 1.024634
55.26407 350.7784 3.069458 0.9825994
55.29314 350.7988 3.057754 0.9840564
55.32389 350.7969 3.013721 0.9696959
55.35572 350.7957 3.034612 0.9813334
55.38444 350.8092 3.028955 0.9676002
55.41455 350.7769 3.047773 1.027521
55.44504 350.7222 3.078455 1.041216
55.47775 350.6797 3.103744 1.095257
55.50887 350.7252 3.13653 1.042794
55.53944 350.7564 3.087886 1.012185
55.56993 350.7649 3.117375 0.9890509
55.59989 350.7554 3.116535 1.001835
55.63079 350.7939 3.194494 0.9623016
55.66412 350.7571 3.146045 0.9797802
55.69578 350.7737 3.111298 0.9477089
55.72593 350.8089 3.111989 0.9156786
55.75688 350.8068 3.091673 0.9441893
55.78614 350.7984 3.078092 0.9550996
55.81947 350.7945 3.068571 0.9733891
55.84833 350.8294 3.040736 0.9251278
55.88166 350.8294 3.060533 0.9290811
55.91177 350.8411 3.058622 0.9010151
55.9403 350.8582 3.034551 0.9185067
55.97049 350.8828 3.043884 0.9083629
56.0029 350.9172 3.045293 0.9053376
56.0317 350.9049 3.098681 0.897882
56.06336 350.9435 3.101586 0.8546358
56.09499 350.9342 3.083875 0.8544849
56.12606 350.9516 3.111979 0.8548344
56.15539 350.9854 3.091127 0.8181255
56.18872 350.9768 3.160706 0.8737797
56.22132 350.9126 3.12154 0.9198076
56.25275 350.9545 3.124759 0.8406832
56.28407 350.9367 3.11672 0.8900341
56.3174 350.9428 3.081555 0.8647491
56.34689 350.9424 3.122893 0.8368165
56.37653 350.9628 3.105905 0.8365031
56.40586 350.8904 3.170204 0.9294225
56.43621 350.9229 3.129019 0.9222319
56.46587 350.9209 3.108047 0.8980699
56.49511 350.95 3.117744 0.8275465
56.52518 350.9593 3.106861 0.8352618
56.55851 350.9092 3.136333 0.8984755
56.58927 350.9287 3.136717 0.8338203
56.6226 350.9127 3.156063 0.8652852
56.65594 350.9257 3.101682 0.8832576
56.68541 350.9484 3.096301 0.8530694
56.71735 350.9377 3.065857 0.8877398
56.74758 350.9785 3.047044 0.8594338
56.77671 351.0414 3.086198 0.7912496
56.80828 351.0172 3.077385 0.7801429
56.84161 351.0363 3.070773 0.7873452
56.87282 350.9528 3.09417 0.9118786
56.90445 350.9836 3.125699 0.8680779
56.93513 350.9736 3.075798 0.8948082
56.96634 350.9767 3.077657 0.9227203
56.99968 350.9189 3.091471 0.9962114
57.03301 350.8455 3.087929 1.044876
57.06635 350.8492 3.025971 1.027143
57.09673 350.8002 3.080595 1.018596
57.1268 350.7835 3.08414 1.057121
57.15783 350.7135 3.087825 1.146149
57.18952 350.7317 3.081056 1.074352
57.22178 350.779 3.103174 0.9758474
57.2513 350.8487 3.08639 0.9323007
57.28263 350.749 3.126137 1.000169
57.31597 350.7675 3.109428 0.9946504
57.3493 350.7678 3.082866 0.9544635
57.38006 350.8275 3.08038 0.8700348
57.41031 350.7844 3.062141 0.9756547
57.44364 350.7858 3.045245 0.9546772
57.47697 350.777 3.05065 0.994128
57.50748 350.8198 3.019659 0.9757329
57.54082 350.7994 3.065301 1.021557
57.57093 350.811 3.045577 0.9954975
57.60395 350.7979 3.060712 0.9628413
57.63438 350.7944 3.052316 0.9926594
57.66772 350.7816 3.023593 0.9602152
57.70105 350.7599 3.068277 1.010797
57.73016 350.7617 3.06551 1.048264
57.7609 350.7193 3.086542 1.15461
57.79126 350.7313 3.098804 1.134005
57.82143 350.6913 3.109242 1.167671
57.85139 350.7562 3.038037 1.132249
57.88472 350.7185 3.089737 1.147193
57.91446 350.6739 3.143976 1.120912
57.94779 350.682 3.130634 1.118824
57.97752 350.6153 3.146822 1.137468
58.0074 350.6408 3.138983 1.122302
58.04003 350.5913 3.147541 1.119303
58.07336 350.633 3.133215 1.059386
58.10669 350.6331 3.108897 1.072656
58.13804 350.5761 3.123792 1.134995
58.16852 350.5741 3.128043 1.11451
58.19886 350.5999 3.097672 1.094624
58.2322 350.6296 3.119199 1.010117
58.26553 350.6392 3.15582 1.054533
58.29552 350.6631 3.119659 1.010994
58.32724 350.6792 3.103828 0.9960684
58.36058 350.6869 3.098618 0.9795089
58.39388 350.7375 3.09456 0.9211913
58.42477 350.7802 3.030065 0.9201122
58.4581 350.8071 3.035526 0.9106897
58.48791 350.8178 3.047845 0.9431798
58.51869 350.8333 3.001424 0.919492
58.55028 350.8384 3.057772 0.9253464
58.58048 350.8128 3.071278 0.9673079
58.6131 350.8178 3.040478 0.9592433
58.64643 350.769 3.030627 1.03303
58.67976 350.7593 3.079003 1.048103
58.71255 350.6891 3.044045 1.131023
58.74588 350.6606 3.085008 1.155071
58.77513 350.6901 3.051382 1.108956
58.80529 350.6523 3.044654 1.135083
58.8363 350.7404 3.026421 1.057406
58.86641 350.78 3.002553 1.036048
58.89974 350.8029 3.033012 1.008357
58.92944 350.841 3.010593 0.9528479
58.96277 350.8452 2.99672 0.9548467
58.99567 350.8402 3.000715 0.9723619
59.02571 350.864 3.017904 0.8977619
59.05905 350.8166 3.062493 0.9493196
59.09238 350.8183 3.084068 0.9668331
59.12571 350.7912 3.08074 0.9585788
59.15836 350.7709 3.08115 0.9792742
59.1917 350.7927 3.074259 0.999742
59.22266 350.7023 3.080018 1.086411
59.25237 350.7245 3.119779 1.02832
59.28212 350.735 3.114563 1.057771
59.31285 350.7403 3.115245 1.015831
59.34443 350.7043 3.150767 0.983187
59.37466 350.7119 3.135974 1.028024
59.40429 350.7285 3.09683 0.9995881
59.4375 350.7407 3.05936 1.013883
59.47083 350.755 3.049199 0.9900637
59.5017 350.7743 3.050144 0.9338429
59.53144 350.8186 3.073436 0.8658444
59.56141 350.8148 3.070858 0.8803459
59.59204 350.7828 3.079871 0.8871642
59.62217 350.763 3.082451 0.948236
59.65276 350.7148 3.097456 1.003192
59.68318 350.7253 3.094088 1.001399
59.71403 350.6549 3.077236 1.049169
59.74416 350.6488 3.113743 1.055808
59.77641 350.6342 3.099622 1.055033
59.80711 350.6298 3.087482 1.014688
59.84045 350.6637 3.090567 1.009723
59.87039 350.7102 3.071018 0.9712673
59.90216 350.7541 3.083354 0.8994915
59.93213 350.793 3.07622 0.8964674
59.96202 350.8307 3.045441 0.8392081
59.99052 350.822 3.060406 0.8309748
60.02332 350.8271 3.080829 0.9333249
60.05424 350.7849 3.090774 0.9655392
60.08757 350.7904 3.08759 0.9901149
60.11783 350.7535 3.122343 1.04627
60.15117 350.7508 3.112232 1.013256
60.18035 350.7602 3.122097 1.011043
60.21368 350.7626 3.122932 0.9757848
60.2468 350.7754 3.073244 0.9591255
60.27892 350.7527 3.114836 1.029173
60.31225 350.7112 3.071344 1.011517
60.34559 350.7611 3.086905 0.9762625
60.37892 350.7797 3.05025 0.9574295
60.4114 350.7846 3.035303 0.9384188
60.44347 350.79 2.991968 0.9663863
60.47416 350.7829 3.002922 0.9864365
60.50602 350.7981 3.000623 0.9566085
60.53936 350.7469 3.001356 1.012674
60.56989 350.6978 3.021539 1.059623
60.60284 350.6936 2.996324 1.065349
60.63225 350.6815 3.020923 1.051592
60.6623 350.7067 3.018238 1.062791
60.69564 350.7122 3.020157 1.026958
60.72606 350.7227 3.028761 1.020411
60.75561 350.7616 3.005226 0.9813192
60.78483 350.7476 2.999888 1.001489
60.81495 350.7234 2.994711 0.9540581
60.84362 350.7586 2.977852 0.930228
60.87319 350.7464 2.982632 0.9467814
60.90471 350.7939 2.986703 0.9356849
60.93805 350.8565 2.990218 0.9070615
60.96796 350.8101 3.035829 1.019499
60.99738 350.8301 2.989555 0.9964384
61.02761 350.7976 2.973701 1.00105
61.05729 350.7087 3.058046 1.083413
61.09019 350.6681 3.084511 1.122121
61.12184 350.6866 3.079469 1.107418
61.15346 350.7466 3.089576 0.9977374
61.18679 350.7776 3.089617 0.9834102
61.21564 350.7375 3.112319 0.9908769
61.24703 350.7399 3.099576 0.9955723
61.27628 350.7756 3.093553 0.9969836
61.30643 350.7243 3.134113 1.024426
61.33585 350.627 3.146263 1.076074
61.36914 350.6442 3.154911 1.055999
61.39992 350.6398 3.129122 1.083683
61.42919 350.6326 3.140092 1.063926
61.46252 350.671 3.142494 1.026685
61.49173 350.6524 3.125429 1.008213
61.52474 350.6629 3.117766 0.993946
61.55491 350.6989 3.134137 0.975546
61.58395 350.6716 3.14912 1.054458
61.61425 350.7093 3.145651 0.9852729
61.6453 350.6858 3.119381 0.9979815
61.67774 350.7225 3.116001 1.00184
61.70726 350.7613 3.146659 0.9412993
61.73956 350.7639 3.146517 0.9311519
61.77164 350.8182 3.146923 0.8782079
61.80434 350.7956 3.188719 0.8850229
61.83504 350.8224 3.162241 0.8995163
61.86371 350.8459 3.15527 0.8331459
61.89434 350.8697 3.179545 0.8577132
61.92734 350.8313 3.15554 0.8569054
61.95642 350.8663 3.182269 0.8430833
61.98613 350.8691 3.182858 0.8279051
62.01947 350.9062 3.168817 0.82752
62.0528 350.8179 3.116419 0.9068172
62.08596 350.8395 3.142893 0.8909011
62.11929 350.8742 3.149299 0.899368
62.15193 350.8962 3.133374 0.8331712
62.18526 350.9402 3.157412 0.8098809
62.21558 350.8041 3.17104 0.9763797
62.2453 350.758 3.185909 0.9938236
62.27588 350.7634 3.165764 1.019056
62.30922 350.7649 3.185378 0.9774492
62.34255 350.774 3.167904 0.965471
62.37301 350.8041 3.130902 0.9470302
62.40258 350.8561 3.148642 0.8742551
62.43143 350.8399 3.164991 0.9234167
62.46164 350.7582 3.144975 0.9886912
62.49498 350.7824 3.154831 0.9756349
62.5252 350.7043 3.145171 1.047288
62.55606 350.6667 3.145623 1.070844
62.58887 350.6545 3.160203 1.104771
62.61815 350.6427 3.137732 1.073902
62.64982 350.6866 3.141021 1.051147
62.6809 350.7501 3.098421 0.9753058
62.7113 350.7416 3.144807 0.9955876
62.74295 350.747 3.112329 0.9948722
62.77362 350.8167 3.10654 0.9441759
62.80696 350.7813 3.119221 0.9636446
62.83686 350.7967 3.105238 0.9630601
62.86635 350.7621 3.107274 0.9904312
62.89935 350.7862 3.110778 0.94204
62.93087 350.7677 3.083719 0.9760586
62.96119 350.7542 3.078417 1.016559
62.9903 350.694 3.118132 1.075928
63.02363 350.6823 3.181865 1.080109
63.05696 350.6966 3.179574 1.063094
63.08821 350.7036 3.21209 1.07192
63.11898 350.7232 3.197004 1.023348
63.15072 350.7745 3.1559 1.007132
63.18348 350.7732 3.170583 0.9793026
63.21275 350.8683 3.179069 0.8993035
63.24266 350.9005 3.172025 0.8727485
63.27431 350.9448 3.183595 0.8229117
63.30426 350.9977 3.152092 0.7892088
63.33599 350.9814 3.138593 0.8203492
63.36932 350.9493 3.137518 0.8794779
63.40248 350.8871 3.142129 0.8982355
63.43582 350.9119 3.117132 0.8890689
63.46727 350.8358 3.166732 0.9851652
63.50057 350.8263 3.227949 0.9929968
63.5321 350.8212 3.202035 0.9515589
63.56224 350.8226 3.180011 0.9722718
63.59277 350.8024 3.183109 1.008468
63.62359 350.853 3.204301 0.9435415
63.65358 350.8717 3.195422 0.908216
63.68561 350.8693 3.159421 0.9029983
63.71797 350.8697 3.159485 0.9012104
63.74706 350.851 3.162946 0.927405
63.7804 350.8367 3.131393 0.9563925
63.81011 350.8452 3.143876 0.9678128
63.8423 350.8702 3.137474 0.9435591
63.87422 350.9063 3.133146 0.9249395
63.90755 350.8803 3.127396 0.9278047
63.93932 350.8748 3.10482 0.9432199
63.97004 350.827 3.093902 1.011537
64.00256 350.8025 3.064282 0.9796433
64.0359 350.782 3.068275 0.9915089
64.06517 350.8037 3.045128 0.9987296
64.09673 350.8569 3.060532 0.965131
64.12533 350.8259 3.072507 0.9685075
64.15866 350.8358 3.041197 0.9794676
64.18793 350.8671 3.021313 0.9610474
64.21759 350.9101 3.022108 0.9286322
64.25092 350.9114 3.014121 0.9233809
64.28002 350.8754 3.014392 0.9518618
64.30917 350.8998 3.007252 0.9206568
64.34155 350.9091 3.044753 0.9391289
64.37209 350.912 3.00437 0.9569561
64.40221 350.8836 3.033175 1.002191
64.43179 350.8465 3.032307 1.005622
64.4624 350.8637 3.068363 0.9549683
64.4955 350.8446 3.07678 0.9510499
64.52883 350.8388 3.104532 0.9941148
64.55884 350.8213 3.071223 0.930215
64.58855 350.8412 3.047884 0.9348285
64.62025 350.7883 3.047425 1.006951
64.6534 350.7771 3.069139 1.043911
64.68232 350.7741 3.099293 1.014702
64.71483 350.7331 3.094914 1.050566
64.74816 350.7414 3.081728 1.079418
64.77692 350.7575 3.135124 1.018273
64.80698 350.8055 3.143869 0.9521931
64.83619 350.7958 3.129145 0.9532999
64.86483 350.7704 3.123209 0.9820431
64.89516 350.7888 3.107369 0.9496329
64.92521 350.8085 3.108558 0.9563868
64.95546 350.8252 3.121906 0.9151378
64.98819 350.7928 3.105612 0.9251363
65.01949 350.8297 3.14393 0.9331121
65.05283 350.8349 3.171351 0.8966323
65.08192 350.7698 3.166666 0.9830298
65.11144 350.7669 3.121043 0.9814836
65.14088 350.7996 3.147662 0.932591
65.17421 350.7827 3.143476 0.9792238
65.2045 350.7191 3.146303 1.018688
65.23577 350.7651 3.160095 0.9353536
65.2691 350.7607 3.184606 0.9301077
65.29836 350.8163 3.17924 0.91803
65.32676 350.7788 3.201234 0.9466383
65.35629 350.8014 3.185858 0.9520206
65.38549 350.802 3.178105 0.9300466
65.41521 350.8214 3.120715 0.9423925
65.44841 350.8131 3.148354 0.9355895
65.4785 350.7917 3.144359 0.9505791
65.50942 350.7765 3.142596 1.041481
65.53886 350.7822 3.159054 0.9771178
65.56983 350.7857 3.16112 1.000104
65.59848 350.8295 3.18748 0.9888815
65.63181 350.8427 3.200363 0.9817795
65.66515 350.8273 3.181472 1.018816
65.6965 350.81 3.187853 1.006729
65.72601 350.8052 3.136776 1.00374
65.75553 350.8277 3.143313 0.9756721
65.78677 350.8127 3.132487 0.9892522
65.81787 350.7381 3.113551 1.047791
65.84918 350.7265 3.115045 1.041071
65.88251 350.7026 3.094626 1.075606
65.91382 350.686 3.107836 1.075352
65.94312 350.7349 3.103601 1.04302
65.97143 350.7444 3.075915 1.063535
66.00201 350.7805 3.088794 1.024444
66.03435 350.7788 3.097618 1.01652
66.06642 350.7938 3.096477 0.9992908
66.09646 350.6867 3.141096 1.084638
66.12766 350.6615 3.157279 1.119874
66.15708 350.7047 3.150427 1.06241
66.18889 350.7172 3.102804 1.048804
66.21905 350.7438 3.113988 1.012458
66.24762 350.7145 3.131639 1.060284
66.2778 350.7628 3.106292 1.001121
66.30744 350.7376 3.101115 1.047706
66.33668 350.7329 3.078699 1.024928
66.36606 350.7727 3.04832 1.010763
66.3961 350.7732 3.056048 0.9999526
66.42551 350.7095 3.042084 0.9997644
66.45596 350.7581 3.014379 0.9841775
66.48582 350.7878 3.034444 0.9271567
66.51517 350.8242 3.024656 0.9809622
66.54674 350.789 3.048071 1.009167
66.58007 350.7783 3.037181 1.028204
66.60884 350.7151 3.088603 1.074685
66.63883 350.709 3.044974 1.115851
66.66951 350.6856 3.029335 1.080656
66.69839 350.66 3.049184 1.12755
66.73172 350.6095 3.096596 1.156698
66.76131 350.5722 3.122905 1.164801
66.79143 350.6067 3.130739 1.110403
66.82476 350.6662 3.108406 1.062369
66.85648 350.6667 3.099521 1.070518
66.88873 350.6925 3.102877 1.037247
66.92206 350.7323 3.106713 1.003953
66.95539 350.7703 3.122764 0.9752933
66.98585 350.8019 3.102604 0.9166703
67.01665 350.7842 3.060165 0.9713993
67.04659 350.784 3.081147 0.958681
67.07511 350.7325 3.059384 1.015793
67.10458 350.7424 3.071362 1.007441
67.13758 350.6903 3.098901 1.074533
67.1689 350.6663 3.063133 1.065139
67.19932 350.6734 3.052907 1.074028
67.23125 350.7182 3.05455 1.070977
67.26066 350.7396 3.085779 0.9518397
67.29112 350.7589 3.071932 0.9593194
67.32446 350.7415 3.09427 0.9685674
67.35441 350.7397 3.071823 0.9477606
67.38581 350.6893 3.046632 0.9924469
67.41817 350.673 3.121176 1.045578
67.45151 350.7168 3.093692 1.009965
67.48267 350.7195 3.121581 1.01147
67.51282 350.7062 3.089575 0.9991707
67.54147 350.696 3.076905 0.9903533
67.57127 350.7406 3.061524 0.9411581
67.60387 350.7764 3.113039 0.910281
67.6372 350.7383 3.087422 0.9658316
67.66915 350.6802 3.076034 0.9975243
67.70248 350.6807 3.09479 1.030347
67.73557 350.6532 3.093786 1.072676
67.76891 350.6309 3.087233 1.050223
67.80199 350.6604 3.102014 1.022345
67.8315 350.7272 3.106705 0.9419683
67.86484 350.7264 3.086715 0.9723099
67.89479 350.7302 3.06928 0.9862401
67.9239 350.7563 3.087738 0.9463421
67.95415 350.72 3.134871 0.9833729
67.987 350.7101 3.185655 1.008277
68.01736 350.6621 3.145755 1.04416
68.04923 350.6516 3.171768 1.078464
68.07854 350.6414 3.17045 1.068534
68.11035 350.6226 3.131584 1.114463
68.13934 350.6016 3.096843 1.111962
68.16946 350.6466 3.079066 1.056002
68.19907 350.6319 3.086261 1.02613
68.22929 350.6583 3.104736 0.9761932
68.26134 350.6998 3.10146 0.9466616
68.29467 350.7009 3.052619 0.969569
68.328 350.7369 3.032731 0.9404666
68.36134 350.6875 3.035348 1.033436
68.39221 350.7044 3.038244 0.9797494
68.42554 350.6788 3.080166 0.9969363
68.45888 350.7306 3.086398 0.9669878
68.49129 350.6796 3.096871 1.019666
68.52462 350.7195 3.133412 0.9632585
68.55721 350.7105 3.140242 0.9354371
68.58826 350.727 3.129984 0.9344387
68.62032 350.7548 3.109129 0.9280621
68.65028 350.7525 3.128972 0.9315709
68.68362 350.7105 3.129392 0.9988778
68.71695 350.7524 3.113459 0.9687855
68.74751 350.7532 3.140635 0.9492314
68.77691 350.7108 3.150675 1.041531
68.81024 350.7296 3.117458 1.0082
68.84074 350.7895 3.082526 0.9655936
68.87068 350.8011 3.105188 0.9351494
68.90025 350.7679 3.147109 0.9108754
68.93109 350.9459 3.032233 0.8917201
68.96156 350.8174 3.129233 0.831125
68.99173 350.8415 3.162664 0.8204213
69.02506 351.0214 3.012297 0.8837095
69.0584 350.7249 3.233199 0.8987023
69.08925 350.9497 3.031828 0.9023712
69.11961 350.8947 3.041411 0.8819591
69.15031 350.6982 3.249236 0.9730945
69.18261 350.8553 3.14603 0.9324833
69.21443 351.0059 2.99577 0.9598811
69.24302 350.7465 3.237861 0.9343148
69.27299 350.8143 3.106392 0.9322897
69.30575 350.9487 2.979896 0.9509388
69.3375 350.7323 3.198522 0.9258994
69.36814 350.8773 2.953076 0.9767286
69.40047 350.7605 3.015972 1.009271
69.42912 350.6172 3.236081 1.025937
69.45962 350.8442 3.028392 1.017607
69.49295 350.8985 2.937607 1.004275
69.52161 350.6546 3.208509 1.021919
69.55212 350.7433 3.107954 1.019447
69.58546 350.7882 3.099348 1.028415
69.61848 350.7227 3.188219 1.023166
69.65182 350.833 3.092139 1.057685
69.6828 350.6997 3.179263 1.069827
69.71613 350.8184 3.129086 1.024085
69.74947 350.8276 3.103492 1.035405
69.78281 350.6587 3.26587 1.066639
69.81252 350.7077 3.178357 1.127428
69.84418 350.6812 3.199349 1.11225
69.87382 350.6719 3.219249 1.031864
69.90564 350.7412 3.188275 1.04014
69.93621 350.6959 3.207421 1.03538
69.96853 350.7114 3.187781 0.9844421
70.00186 350.7135 3.17383 1.034059
70.03519 350.7255 3.157589 1.047562
70.06853 350.6825 3.179762 1.017513
70.09822 350.6979 3.181011 1.030534
70.12901 350.7403 3.147024 1.030591
70.16235 350.6878 3.172062 1.00631
70.19568 350.7323 3.120059 1.018867
70.22806 350.6991 3.143245 0.9760012
70.26115 350.713 3.129468 0.984668
70.29448 350.7133 3.100406 0.9400313
70.32738 350.7761 3.101174 0.9519219
70.35978 350.7198 3.112508 0.9519894
70.39158 350.717 3.102185 0.9527576
70.4229 350.7783 3.043647 0.9039962
70.45319 350.7415 3.064512 0.9172031
70.48226 350.6967 3.151101 0.9267294
70.51339 350.7234 3.120439 0.8870207
70.54672 350.9037 3.060735 0.8381795
70.5772 350.7095 3.150569 0.8798544
70.6103 350.784 3.072698 0.9108152
70.64363 350.7713 3.004608 0.9566651
70.67696 350.6699 3.108953 0.9428236
70.70676 350.8556 2.92485 0.9716752
70.73726 350.6982 3.033781 0.9834161
70.7673 350.6102 3.143368 1.039783
70.79859 350.7832 3.021407 0.9879004
70.83192 350.7286 3.093657 0.9968326
70.8637 350.7505 3.089206 0.9665231
70.89703 350.8431 3.043425 0.9447623
70.92849 350.7773 3.136273 0.8886333
70.96085 350.8032 3.07039 1.050328
70.99418 350.7073 3.107857 1.118301
71.02751 350.5725 3.212039 1.166232
71.06084 350.6337 3.077852 1.187334
71.09104 350.5627 3.170823 1.15735
71.12227 350.6287 3.073768 1.14976
71.15266 350.6283 3.064932 1.105348
71.18341 350.561 3.103463 1.099441
71.21349 350.6747 3.105525 1.053163
71.24217 350.7437 3.039211 1.097883
71.27551 350.6938 3.146782 1.053911
71.30518 350.6597 3.149704 1.034349
71.33744 350.7097 3.08053 1.076459
71.37012 350.7034 3.05546 1.045442
71.39946 350.6931 3.024427 1.04623
71.43114 350.6928 3.013259 1.069893
71.46104 350.6846 3.020659 1.026889
71.48991 350.7152 3.00767 1.087061
71.52068 350.7458 2.996216 1.001827
71.55095 350.7356 3.005057 1.011811
71.58197 350.6895 3.002581 1.012847
71.61063 350.7161 3.006284 1.036721
71.64008 350.7293 2.976053 1.094756
71.67016 350.6937 2.971814 1.085153
71.70068 350.5779 3.043956 1.155518
71.734 350.7059 2.963777 1.162644
71.76548 350.6927 2.951019 1.140478
71.79628 350.6617 2.989523 1.09639
71.82703 350.6585 2.951947 1.132734
71.85765 350.645 2.935077 1.123154
71.88747 350.7389 2.870946 1.09552
71.91786 350.7042 2.978815 1.056818
71.94752 350.7046 2.980627 1.056783
71.97667 350.755 2.941486 0.9952525
72.00974 350.7854 2.92082 1.009798
72.04308 350.8064 2.91557 1.010215
72.07294 350.8047 2.920663 1.044239
72.10599 350.8167 2.92461 1.011653
72.13736 350.7726 2.965696 1.027616
72.16753 350.8056 2.935435 1.007308
72.20036 350.8074 2.956739 0.9937083
72.2337 350.7481 2.992874 1.055866
72.26703 350.7314 3.005294 1.062481
72.30036 350.7413 3.016549 1.06055
72.33369 350.8039 2.964207 1.037699
72.36398 350.805 2.958988 0.9880399
72.39732 350.7665 2.98628 0.990678
72.42776 350.8122 2.9592 1.05451
72.45659 350.7648 3.006934 1.064837
72.48665 350.7196 3.043609 1.040135
72.51998 350.7869 2.997642 0.9995156
72.54913 350.8776 2.97413 0.9358115
72.58246 350.8217 2.985558 1.014228
72.61367 350.8222 2.970001 0.9962543
72.647 350.7661 3.01243 1.028632
72.67874 350.7468 3.005432 1.049891
72.71107 350.7668 2.949656 1.081651
72.73935 350.6187 3.02305 1.170343
72.77068 350.6536 3.029498 1.107545
72.80401 350.7872 2.959764 1.08507
72.83336 350.6987 2.999957 1.090061
72.86564 350.8004 2.978562 0.9660929
72.89897 350.7806 3.006665 1.005804
72.92956 350.9174 2.960304 0.94153
72.95852 350.948 2.91195 0.938644
72.98867 350.8558 3.013597 0.9246041
73.01894 350.9615 2.936323 0.8764655
73.05106 351.0146 2.922806 0.9157508
73.08439 350.9438 2.929595 0.8981573
73.11772 351.0054 2.910192 0.8772975
73.15105 350.9934 2.871362 0.8690873
73.18184 350.9388 2.89447 0.9406387
73.21517 350.9542 2.874744 0.9278161
73.2485 350.9521 2.871676 0.9112994
73.28184 350.9643 2.876779 0.8737447
73.31517 350.9292 2.893383 0.94008
73.34797 350.8349 2.898449 0.9774211
73.3813 350.8665 2.868246 1.007359
73.41286 350.8664 2.901493 1.010757
73.44588 350.8477 2.904865 0.9752834
73.47755 350.9128 2.892085 0.9415063
73.5091 350.9007 2.870236 0.9736441
73.53937 350.844 2.894312 0.9533304
73.57033 350.849 2.846532 0.9648309
73.60182 350.83 2.8045 0.9759489
73.6335 350.7842 2.823991 0.9858962
73.66525 350.8475 2.821833 0.9499901
73.69523 350.8405 2.824407 0.895571
73.72749 350.8846 2.845391 0.8791209
73.75675 350.882 2.841322 0.8615212
73.78595 350.8896 2.88879 0.8435721
73.81657 350.9484 2.879329 0.8582305
73.8499 350.9015 2.8236 0.8917204
73.87996 350.877 2.856239 0.9179932
73.91037 350.8777 2.876659 0.9420911
73.94158 350.9036 2.857381 0.9532961
73.97492 350.8692 2.875992 0.9858038
74.00593 350.8138 2.879015 1.056484
74.03555 350.801 2.886316 1.037727
74.06501 350.7853 2.893081 1.078797
74.0959 350.767 2.873044 1.08313
74.12561 350.7694 2.927059 1.125812
74.15894 350.7471 2.956216 1.084224
74.18877 350.7131 2.950962 1.100033
74.21958 350.8014 2.918878 1.025403
74.25112 350.7701 2.880356 1.024413
74.28445 350.8161 2.893233 0.9762745
74.31779 350.8417 2.884362 0.9525514
74.34994 350.7986 2.915475 1.000104
74.38313 350.8255 2.904529 0.9780837
74.41236 350.8141 2.916506 0.9717866
74.43997 350.83 2.913096 0.9705482
74.46952 350.7304 2.923169 1.061073
74.50056 350.7292 2.918491 1.064298
74.52971 350.7135 2.911918 1.079056
74.55885 350.7778 2.895897 1.010456
74.58908 350.7773 2.908396 1.005469
74.61932 350.7799 2.918239 1.051272
74.65041 350.7694 2.96879 1.048713
74.68073 350.7217 2.931731 1.102099
74.71008 350.6789 2.944322 1.149093
74.74033 350.7303 2.914449 1.091288
74.77106 350.7411 2.879326 1.050881
74.8015 350.7499 2.903301 1.046291
74.83199 350.7619 2.86149 1.042592
74.86504 350.7116 2.901433 1.055847
74.89502 350.7684 2.910489 1.008623
74.92514 350.7505 2.937275 1.026268
74.95847 350.8035 2.89993 1.016946
74.99055 350.8021 2.901723 0.9824686
75.02092 350.8192 2.930566 1.014908
75.05231 350.8446 2.972621 0.9868324
75.08192 350.8316 3.026263 0.9922713
75.11354 350.8353 3.058566 1.029389
75.14413 350.808 2.997485 1.004539
75.17747 350.8482 3.011068 0.976945
75.20925 350.7728 3.00058 1.076691
75.24171 350.713 3.001387 1.110371
75.27203 350.782 2.982795 1.08759
75.30315 350.7306 3.000251 1.021066
75.33212 350.711 2.990343 1.011051
75.36174 350.7063 2.985181 1.077888
75.39261 350.7408 2.96616 1.0106
75.423 350.744 2.9614 1.010359
75.45596 350.7176 2.997363 1.07575
75.48929 350.7112 2.99359 1.043105
75.52262 350.7097 2.978378 1.066093
75.55312 350.699 3.033142 0.9874969
75.58646 350.7608 3.002979 0.9775085
75.61979 350.7551 3.01675 0.9337468
75.65313 350.8064 3.058042 0.9150157
75.68482 350.9118 2.958274 0.9345044
75.71815 350.7977 3.06177 0.9337716
75.75047 350.8898 2.981828 0.9939479
75.77971 350.86 2.980606 1.012443
75.812 350.7391 3.051712 1.076267
75.84216 350.8271 3.02984 1.041185
75.87291 350.8231 3.004874 1.019793
75.90319 350.7868 3.030075 1.056987
75.93235 350.786 2.970543 1.077239
75.9635 350.7813 3.003054 1.090352
75.99683 350.7365 3.014715 1.079222
76.02816 350.777 2.985061 1.082699
76.06149 350.7753 2.928964 1.033679
76.09483 350.8403 2.951521 1.004722
76.12783 350.8114 2.9507 1.034767
76.16116 350.7586 2.97775 1.07444
76.19393 350.7843 2.980813 0.9956946
76.22423 350.8159 2.992908 0.9778746
76.25756 350.7873 3.046852 1.005112
76.28841 350.7546 3.065662 1.022051
76.31759 350.7435 3.097129 1.014756
76.34806 350.8286 3.10251 0.9471432
76.37775 350.8322 3.107287 0.9748794
76.41108 350.8241 3.101359 0.9213903
76.44109 350.8792 3.079767 0.9048764
76.47025 350.9089 3.116154 0.8993833
76.49877 350.9235 3.105005 0.9119086
76.52868 350.901 3.091151 0.8799452
76.55993 350.9251 3.062081 0.8433534
76.59082 350.9216 3.143007 0.8966321
76.62323 350.9343 3.101968 0.9032552
76.65656 350.945 3.13458 0.8519283
76.68617 350.9513 3.136259 0.8102196
76.71563 350.9261 3.110623 0.8886178
76.74657 350.9093 3.095212 0.8627334
76.7799 350.8292 3.139544 0.9458109
76.81143 350.8178 3.1232 0.9706118
76.84257 350.8889 3.112557 0.9332361
76.87315 350.8787 3.14348 0.9210863
76.90649 350.8688 3.134303 0.8787335
76.93779 350.8917 3.119108 0.8759156
76.96664 350.9458 3.091169 0.8363197
76.99654 350.996 3.082643 0.8048998
77.02686 350.9583 3.110232 0.8214498
77.05582 350.9692 3.079091 0.8343052
77.08916 350.9235 3.016024 0.8543984
77.12249 350.8546 2.965789 0.9362572
77.15443 350.8655 2.984416 0.9069353
77.18777 350.8712 2.977938 0.881358
77.21774 350.8552 2.95429 0.9110367
77.25107 350.8881 2.97613 0.8848554
77.28235 350.9169 2.953418 0.9055408
77.31204 350.9402 2.931605 0.881031
77.34113 350.9465 2.941353 0.8694808
77.37326 350.9074 2.954046 0.9635235
77.40437 350.8793 2.983319 0.9958621
77.43571 350.853 2.951356 0.9957825
77.46515 350.8687 2.963554 0.9672454
77.49612 350.8321 2.944599 0.9721698
77.52946 350.8372 2.913669 1.013014
77.55964 350.8138 2.909405 1.055129
77.58904 350.8019 2.956861 1.072571
77.62238 350.7351 3.029727 1.000596
77.65215 350.9454 2.853777 1.033846
77.68092 350.8001 2.993392 0.97038
77.71197 350.7726 3.041562 0.9948144
77.74181 350.9608 2.856859 0.9934248
77.77262 350.8408 2.942864 0.9755747
77.80152 350.8007 3.04399 0.9422128
77.83382 350.998 2.885051 0.9305581
77.86715 350.8966 2.980545 0.8716119
77.89657 350.8927 2.993359 0.908052
77.92793 350.9582 2.893931 0.9286886
77.95827 350.8173 2.995944 1.001414
77.9873 350.7656 3.008608 1.07752
78.02064 350.8302 2.972584 1.035081
78.05035 350.6617 3.06783 1.056633
78.08012 350.7255 3.07804 1.015703
78.11128 350.7927 2.994224 1.069054
78.14177 350.6757 3.105718 1.075384
78.17313 350.6398 3.077805 1.13749
78.20532 350.7019 3.008675 1.104976
78.2365 350.6363 3.043717 1.071534
78.26564 350.6077 3.053754 1.121048
78.29511 350.6621 3.036315 1.107675
78.32845 350.5985 3.050025 1.099755
78.3569 350.6412 3.061502 1.134541
78.38652 350.639 3.0449 1.116715
78.41875 350.5669 3.074537 1.095806
78.4479 350.555 3.083991 1.174249
78.47766 350.5607 3.063972 1.229423
78.50776 350.5135 3.051288 1.178291
78.5378 350.5101 3.067756 1.181067
78.57113 350.5796 3.040588 1.140286
78.60087 350.579 3.070081 1.10381
78.63267 350.6069 3.071011 1.136105
78.666 350.6313 3.05704 1.104692
78.69631 350.6451 3.106168 1.050308
78.72592 350.7105 3.11304 0.9986874
78.75694 350.6776 3.131344 1.036208
78.78674 350.608 3.1551 1.069787
78.82007 350.5822 3.152322 1.116802
78.85021 350.6046 3.136941 1.068771
78.88179 350.5818 3.14368 1.086561
78.91247 350.5692 3.147902 1.11808
78.94395 350.5857 3.119076 1.082927
78.9752 350.5703 3.123402 1.12225
79.00624 350.5818 3.087631 1.089293
79.03957 350.6562 3.10925 1.011263
79.06971 350.6676 3.093344 1.001651
79.09924 350.6823 3.093912 1.026934
79.13024 350.7294 3.103697 0.9759992
79.16349 350.7251 3.127007 0.9430769
79.19223 350.7862 3.113141 0.8729734
79.22186 350.7806 3.134818 0.8598958
79.2514 350.8114 3.120971 0.831987
79.28473 350.828 3.115326 0.8684651
79.31439 350.8434 3.102424 0.8463091
79.34401 350.8435 3.152777 0.866201
79.37379 350.7975 3.197715 0.9028506
79.40713 350.751 3.194323 0.9840877
79.43942 350.7395 3.181429 0.9896324
79.46876 350.7534 3.199393 0.9845589
79.49954 350.7084 3.176035 1.018813
79.53024 350.7255 3.163228 1.044755
79.56358 350.7104 3.159277 1.049248
79.59631 350.6664 3.184832 1.075709
79.62891 350.6748 3.180053 1.068539
79.66224 350.693 3.152339 1.116491
79.69086 350.6795 3.135705 1.077326
79.71986 350.6853 3.152383 1.043631
79.75107 350.6162 3.17076 1.184394
79.78218 350.6175 3.182904 1.167413
79.81336 350.5038 3.267314 1.338559
79.84197 350.5005 3.257298 1.296169
79.87169 350.3904 3.294357 1.372709
79.90502 350.368 3.355148 1.40734
79.93425 350.3611 3.319424 1.355561
79.96397 350.31 3.363649 1.39892
79.99656 350.3505 3.381444 1.355443
80.02933 350.4922 3.399367 1.176795
80.06266 350.5789 3.358765 1.11437
80.09277 350.6279 3.270977 1.042706
80.12363 350.6142 3.280931 1.076026
80.15305 350.6834 3.281313 1.033068
80.18198 350.6473 3.311795 1.020223
80.21532 350.7113 3.305123 0.9597779
80.24714 350.6985 3.263349 0.9838917
80.28047 350.7343 3.239074 0.9560072
80.31012 350.7284 3.28664 0.9274279
80.34008 350.7404 3.254355 0.8931536
80.37136 350.7315 3.27177 0.9324793
80.40211 350.7263 3.240793 0.981858
80.43544 350.7184 3.233169 0.9757245
80.46398 350.7127 3.224216 1.021486
80.49316 350.6645 3.213799 1.020916
80.52247 350.6171 3.19705 1.097277
80.5558 350.6167 3.1992 1.092304
80.5875 350.6187 3.188415 1.033143
80.6169 350.6702 3.167004 1.010378
80.64666 350.6639 3.124901 1.020807
80.67604 350.6582 3.081409 1.021173
80.7054 350.7069 3.096936 1.012586
80.73462 350.7284 3.088939 0.9920859
80.76421 350.6943 3.124944 1.0561
80.79613 350.6778 3.134887 1.019348
80.82947 350.6693 3.13293 1.017114
80.86148 350.6323 3.11535 1.089903
80.8931 350.616 3.138962 1.100329
80.92435 350.6241 3.121729 1.104653
80.95378 350.6036 3.185654 1.092744
80.98368 350.6208 3.17815 1.047954
81.01576 350.6877 3.186786 0.9175526
81.04411 350.6754 3.171149 0.9459045
81.07426 350.68 3.211504 0.9751078
81.10616 350.7011 3.22434 0.9099236
81.13462 350.7239 3.196158 0.9230148
81.16795 350.7161 3.196919 0.9380728
81.2004 350.7344 3.144077 0.9475751
81.22929 350.7397 3.195355 0.9373376
81.26262 350.7594 3.172649 0.9448336
81.29353 350.7986 3.186638 0.9019166
81.32587 350.8426 3.18666 0.8208213
81.35738 350.8581 3.170229 0.8117016
81.38778 350.849 3.206249 0.8857434
81.41784 350.8412 3.193859 0.9196151
81.45117 350.8426 3.19926 0.9350746
81.47962 350.8369 3.187879 0.9363219
81.50815 350.9309 3.160292 0.8525146
81.53884 350.8556 3.192374 0.9457934
81.56763 350.831 3.195268 1.011274
81.59853 350.8483 3.226733 0.9443699
81.62884 350.833 3.192233 0.9671348
81.66217 350.8276 3.153449 0.9562657
81.69077 350.7914 3.164991 1.070579
81.72086 350.7717 3.145155 1.045594
81.75175 350.7995 3.154471 0.9933211
81.78508 350.7751 3.132417 0.9930885
81.81635 350.7994 3.122283 0.9643043
81.84969 350.8093 3.135129 0.9366707
81.87862 350.8305 3.138442 0.9735316
81.91196 350.8167 3.17064 0.957069
81.94196 350.8613 3.140419 0.8937559
81.975 350.8842 3.132821 0.9097742
82.00572 350.8442 3.135276 0.9560168
82.03905 350.8296 3.119305 1.000423
82.07141 350.7908 3.174401 1.060277
82.10127 350.7081 3.191507 1.146343
82.13046 350.7231 3.208165 1.087975
82.16062 350.7627 3.185855 1.004231
82.19395 350.7932 3.183421 0.982357
82.22458 350.8334 3.175053 0.9461789
82.25731 350.9089 3.168364 0.8871925
82.29042 350.9438 3.163059 0.8839622
82.3225 350.9086 3.159053 0.9207721
82.35342 350.9309 3.121933 0.8851047
82.38377 350.9828 3.14083 0.8231525
82.41521 350.9958 3.14044 0.883401
82.44443 350.9896 3.151996 0.877492
82.47715 351.0302 3.136706 0.8388411
82.51048 351.0244 3.140117 0.8348507
82.54032 351.0238 3.134963 0.8357001
82.57013 351.021 3.098909 0.8497185
82.59943 350.9857 3.089935 0.8988653
82.63251 351.0036 3.082084 0.8920466
82.66397 351.0159 3.082809 0.8555958
82.69453 351.0223 3.100648 0.8341213
82.72583 351.0101 3.070881 0.8230016
82.75692 351.0205 3.069998 0.8392638
82.79025 351.0143 3.12647 0.8695962
82.82298 351.0179 3.079148 0.8643427
82.85213 351.0048 3.076729 0.9077857
82.88277 350.9873 3.097034 0.9050003
82.91611 350.9159 3.092284 0.9822347
82.94667 350.8752 3.088074 1.034783
82.97581 350.845 3.109109 1.084567
83.00549 350.7854 3.090809 1.109875
83.03738 350.7669 3.048404 1.093429
83.07072 350.7293 3.040911 1.101088
83.10041 350.6829 3.019981 1.135426
83.13242 350.6275 3.055001 1.127897
83.16576 350.6299 3.021451 1.156137
83.19655 350.5806 3.032414 1.183178
83.22988 350.6031 3.057718 1.105716
83.25927 350.6935 3.076677 1.113508
83.28954 350.7156 3.093652 1.032102
83.31946 350.7037 3.076487 1.045974
83.34917 350.6903 3.049837 1.035237
83.37815 350.7306 3.052392 0.9556559
83.40771 350.7317 3.130294 1.007074
83.43731 350.714 3.101989 0.9687714
83.46671 350.6744 3.117977 1.050181
83.49621 350.7023 3.11819 1.009608
83.52521 350.7842 3.106702 0.9469051
83.55707 350.758 3.111914 0.9894332
83.58793 350.7936 3.109981 0.9690506
83.61763 350.7623 3.107273 1.029733
83.65096 350.6983 3.148199 1.065722
83.68127 350.6762 3.098512 1.085798
83.7146 350.7031 3.094701 1.068208
83.7434 350.7441 3.141375 1.028736
83.7729 350.7154 3.129637 1.046694
83.80441 350.679 3.093 1.039732
83.83774 350.696 3.055982 1.063414
83.87107 350.6807 3.064785 1.083662
83.90142 350.7321 3.04476 1.029335
83.9316 350.7491 3.004878 1.00155
83.96333 350.7303 3.02461 1.049428
83.99597 350.7365 3.047135 1.066015
84.02448 350.7189 3.071659 1.030697
84.05781 350.7213 3.087651 1.047098
84.08759 350.7322 3.04103 1.018284
84.12093 350.728 3.055137 0.9934846
84.15427 350.736 3.0528 1.000086
84.18378 350.7179 3.038042 1.040174
84.21294 350.7462 3.046599 1.004581
84.24627 350.7288 3.051163 1.042948
84.2796 350.677 3.074515 1.052812
84.30808 350.7745 3.001864 1.100051
84.34121 350.9311 2.928115 0.9766637
84.37051 350.781 3.069924 0.9998052
84.40081 350.8706 3.029649 0.916045
84.4306 350.9493 2.976571 0.919926
84.46394 350.8572 3.075459 0.902214
84.49311 350.8048 3.053693 0.8884472
84.52644 350.9386 2.989532 0.9011633
84.5583 350.7533 3.503095 0.8234652
84.58755 350.9125 3.296654 0.9016517
84.6207 350.9571 3.298355 0.833834
84.65403 351.0921 3.542916 0.8758923
84.68736 350.9897 3.672077 0.9950678
84.7207 351.5955 3.130831 1.05759
84.75299 351.2152 2.98479 0.9998917
84.78632 350.9073 2.977106 0.969219
84.81622 350.9688 3.306889 0.7572361
84.8457 351.179 2.381655 1.388609
84.87507 351.4067 2.531215 1.124665
84.90841 351.2831 2.947019 0.5999981
84.94174 351.0951 2.552443 1.274946
84.96976 351.3016 3.05362 1.62255
84.99989 351.3521 3.394317 1.594091
85.03253 351.2808 3.630527 1.702455
85.06333 351.7187 4.34893 2.201677
85.09283 351.7798 4.338828 2.243852
85.12531 351.8172 3.906518 2.358916
85.15536 352.1246 3.823261 2.494347
85.18483 352.2939 4.021751 1.898428
85.21816 352.5327 4.057344 1.581897
85.2515 352.9702 4.851477 1.037347
85.28097 352.9944 4.876135 1.501012
85.31192 352.9594 5.455647 1.805789
85.34113 352.7348 5.616383 1.694432
85.37147 352.7191 6.110389 1.159042
85.40084 352.823 6.637933 0.749312
85.43278 352.5327 6.942986 0.8046711
85.46234 352.1028 7.789948 0.6511644
85.49213 351.4569 8.31066 0.5471273
85.52115 350.1069 8.74971 0.8329396
85.55169 348.5885 9.484752 0.623705
85.58166 347.2892 9.166471 0.4766161
85.61152 346.186 9.864831 359.0782
85.64433 344.3161 9.025175 357.2571
85.674 343.9257 9.586493 356.2033
85.70657 342.0253 8.660239 356.1632
85.73862 340.5853 8.620183 355.8041
85.77195 339.2286 8.917364 355.221
85.80398 335.6873 7.16385 355.1285
85.8341 333.3625 6.758889 354.3445
85.86385 332.1109 5.960606 353.659
85.8946 330.4968 6.205573 351.4901
85.92793 327.8114 5.729616 349.5993
85.95682 325.4874 5.737728 346.8352
85.98631 324.2114 5.570629 345.1046
86.01859 323.2442 5.196982 344.235
86.04916 320.9873 4.113816 343.5124
86.07991 319.016 3.580034 342.4318
86.11324 317.7064 2.574481 341.7683
86.14351 317.2911 0.9862701 341.623
86.17384 317.058 359.5185 341.8778
86.2033 316.935 359.4287 342.1873
86.23528 316.7696 359.2852 342.8088
86.26329 317.6246 359.5601 344.3263
86.29276 317.02 359.4413 345.1028
86.3261 316.9472 359.8349 345.0617
86.35943 317.192 0.2526778 345.1989
86.39276 316.2933 359.1958 346.1606
86.42262 316.0482 0.3614585 344.8174
86.45596 314.5401 359.4125 345.7358
86.48541 313.375 359.9904 344.2873
86.51865 312.3632 359.5451 342.7005
86.55121 312.8462 358.0518 342.975
86.58046 314.0114 356.926 343.0285
86.60966 313.796 356.2586 342.5939
86.64228 313.4523 355.8591 341.6666
86.67231 314.902 354.3445 342.6632
86.70173 314.9926 352.622 343.7012
86.72972 315.6238 352.3958 343.639
86.76305 314.6953 350.6257 345.5528
86.79251 313.5093 348.9731 347.3383
86.82457 312.2583 347.854 348.3565
86.85563 311.7685 345.9415 350.7202
86.88896 310.2354 343.9743 352.429
86.91954 309.6818 343.4737 352.4601
86.94907 309.323 342.1305 353.4173
86.97903 309.9188 341.7775 353.3795
87.00776 309.5974 341.2326 353.9268
87.04037 309.1565 340.679 354.4561
87.07014 308.7646 340.8098 354.4804
87.10348 308.1263 339.2281 356.4038
87.13681 307.2314 339.9844 356.8301
87.16719 304.025 340.067 0.02585026
87.20052 300.6599 341.7574 2.829646
87.22903 298.847 341.7098 7.300363
87.25835 298.2385 342.1623 9.125013
87.28709 298.3587 341.2321 10.79979
87.31756 298.9418 341.259 12.35212
87.3457 298.4124 342.0677 10.76604
87.37769 298.2247 340.6806 12.4469
87.41013 297.3884 341.1315 12.62593
87.43879 297.2585 341.1596 14.80516
87.46709 295.749 340.6208 17.89339
87.50037 295.4483 340.9771 17.77739
87.52986 295.2562 339.9143 17.58966
87.56319 295.473 339.7006 17.16944
87.59174 296.0808 341.9472 16.12271
87.62424 295.7207 338.9628 20.68907
87.65327 295.1642 342.0825 18.6401
87.68484 294.8906 337.6652 24.00723
87.71818 295.574 338.6602 23.77365
87.75027 296.2201 334.7394 27.88716
87.78239 295.8439 334.3796 29.29898
87.81152 295.7706 331.6454 33.26703
87.84054 295.9555 329.7645 36.869
87.87387 296.0711 328.2112 39.6412
87.90455 295.7374 327.0307 41.33449
87.93788 295.8798 324.8707 41.74503
87.9671 295.7048 322.5903 43.99166
87.99671 295.1027 320.4446 44.60888
88.02728 295.3278 317.7924 45.70811
88.0568 294.5224 315.5776 45.66638
88.08993 293.5323 314.407 45.59195
88.12326 293.7394 312.6005 46.36276
88.15214 294.0674 312.8339 44.89904
88.18133 294.302 313.6807 44.19679
88.20914 294.8861 313.7769 44.91005
88.24248 296.0312 315.5498 42.46909
88.27346 298.4841 317.7108 39.49744
88.30154 299.5516 323.1003 34.6927
88.33113 300.6866 325.3935 33.07882
88.36021 301.8812 327.1821 33.61048
88.3905 302.2544 329.0085 33.85594
88.41988 302.1371 330.4636 35.17927
88.44963 302.07 329.5618 38.20042
88.48238 302.233 331.7575 36.31866
88.51264 303.1999 331.4167 35.9753
88.54173 303.3063 331.7072 33.84252
88.57355 303.862 330.9965 31.92117
88.60688 305.2606 329.0639 31.12478
88.63632 305.1609 326.9946 32.409
88.6673 305.5148 325.3055 33.6314
88.69749 306.5023 324.1828 33.24588
88.72723 307.3689 323.1267 32.69287
88.75817 308.1221 321.8755 32.20963
88.78819 310.1644 322.2086 30.1559
88.82014 312.4797 322.0751 29.11945
88.85202 313.9385 323.5653 27.87663
88.88048 315.4441 324.5079 27.3817
88.91381 316.3169 324.454 26.67668
88.9422 317.6122 324.9951 26.00755
88.97192 317.937 326.4991 24.46194
89.00367 318.5045 328.0635 23.32543
89.03539 319.0704 329.4877 22.58567
89.06488 319.0331 329.7618 22.35067
89.09821 318.9104 330.1056 22.27877
89.12792 318.6375 330.2649 22.62517
89.15761 318.6223 330.1674 23.40423
89.1872 318.1938 330.6644 24.50918
89.21612 318.1409 331.0668 24.73223
89.24771 318.976 331.0666 24.26534
89.27901 318.9481 332.9721 21.8729
89.30823 319.8277 330.9682 23.45605
89.33713 319.7141 331.1005 22.84205
89.36916 320.5101 330.6437 22.70507
89.39794 322.3845 333.5252 19.82356
89.42813 323.5139 334.8436 20.60327
89.45738 324.4699 337.2776 22.13754
89.49072 324.9729 338.3345 25.24813
89.52405 325.4809 338.752 25.81672
89.55451 325.4456 338.5098 25.50286
89.58321 325.9737 338.1389 23.59305
89.61324 326.0162 338.0911 22.41
89.64658 325.3983 337.6925 22.09756
89.67654 324.137 337.5016 22.62375
89.7071 321.0216 337.3105 26.03445
89.73767 318.2016 336.0389 30.53119
89.771 316.8826 337.9196 30.63716
89.8015 316.2746 340.1775 30.81396
89.83044 313.7192 339.6327 31.22242
89.85934 311.0032 337.5917 31.93886
89.89087 309.7896 338.6861 29.40962
89.9242 308.9262 340.9334 27.02597
89.95364 305.9026 341.3777 28.55198
89.98592 304.0922 341.4984 29.6278
90.01836 302.0026 345.6861 27.23515
90.04702 299.7743 345.3985 28.18993
90.08035 297.7061 346.6493 27.2961
90.1095 295.2654 349.1476 24.76975
90.13839 291.8942 347.6201 27.1461
90.17172 291.1718 346.8205 28.17727
90.20171 289.1924 341.752 32.67012
90.23283 287.7079 338.8069 33.26135
90.26485 286.7651 337.9553 31.94896
90.29559 286.4758 339.4091 27.2423
90.32735 286.4944 339.9933 24.8388
90.35696 286.0483 340.8032 23.4919
90.3903 285.2288 342.7045 22.8336
90.41805 284.3189 342.3965 24.24119
90.44804 283.6554 343.6657 23.90561
90.47862 282.3509 339.5356 29.20971
90.50694 282.1774 340.3917 28.51642
90.53541 282.6298 339.5971 28.72146
90.56526 283.0437 335.9944 31.59691
90.59859 283.5461 333.4691 33.2653
90.63193 285.0981 334.1927 32.10933
90.66359 286.1769 331.7209 35.16003
90.69666 286.4429 332.8865 35.06558
90.72564 288.6952 333.7146 36.25769
90.75508 290.1927 332.6978 38.69241
90.78369 289.782 329.155 42.72836
90.81242 290.1381 324.9762 49.4652
90.84173 290.4317 329.4591 47.14436
90.87065 291.7836 331.0506 46.61329
90.90398 293.468 335.1615 40.99176
90.93471 294.5118 338.0022 37.21189
90.96377 295.8846 339.0145 36.93151
90.99296 297.0243 338.2647 38.8049
91.02252 299.0746 341.5017 35.80423
91.05585 300.8315 342.3244 33.67335
91.08691 303.2149 342.4694 33.85703
91.12025 304.661 341.6117 33.36039
91.15358 307.3523 341.7794 32.89671
91.18378 308.8459 340.2644 35.37062
91.21365 310.5918 341.3642 34.76788
91.24348 312.3275 342.9486 35.55256
91.27681 313.3391 343.8091 35.83192
91.3074 315.0269 345.4457 35.94739
91.33832 317.7971 345.9337 37.08478
91.37029 321.1164 347.4009 35.76983
91.40136 322.7891 343.5856 38.87885
91.43149 324.9248 342.335 38.75498
91.4611 327.588 341.8345 39.71776
91.49037 331.0187 340.2533 40.41335
91.51898 330.3802 338.7431 43.55367
91.5487 331.0612 337.6353 44.56784
91.58203 331.0619 335.4113 44.33839
91.61089 331.8813 332.6996 41.94182
91.64422 331.3043 330.2428 41.55114
91.6731 329.1541 327.0485 42.71256
91.70295 328.9462 326.1836 40.44197
91.73315 327.0846 324.4524 39.45779
91.76202 325.0037 323.5964 37.56833
91.79059 323.1726 322.1125 37.06056
91.82392 319.8882 320.4514 37.85425
91.8531 318.3865 320.8546 36.15224
91.88136 318.2577 320.6661 34.70458
91.91469 319.5244 320.8308 33.88258
91.94459 325.6597 323.3495 35.37053
91.97428 330.5005 327.8983 34.16826
92.00407 334.1241 331.0514 32.8884
92.03741 339.327 333.7381 33.15042
92.0672 343.3469 337.4865 31.26414
92.10053 346.2218 338.7137 31.26009
92.13132 346.8012 340.5822 28.81513
92.15993 344.4336 339.805 28.9699
92.18983 343.7988 339.0961 29.71347
92.21812 344.6018 338.0286 27.74801
92.25146 344.6763 338.4139 26.87318
92.28251 347.0661 340.3198 26.01468
92.31148 348.523 340.7172 25.92527
92.34322 350.4595 340.4485 26.30911
92.37417 353.3999 340.9589 26.49888
92.40431 352.4607 342.222 25.70485
92.43529 350.6877 343.5337 25.96508
92.46466 351.4284 344.3492 25.59066
92.49435 352.368 345.3394 22.3693
92.52286 352.9193 346.1388 21.24182
92.55619 352.3222 348.462 20.81067
92.58744 350.9946 350.547 20.83201
92.62024 350.874 353.767 18.06717
92.65357 352.2385 356.3221 14.72476
92.6869 350.8489 357.9211 12.68026
92.71615 351.399 359.9363 11.2213
92.74948 351.4469 359.9505 13.35969
92.77918 351.4256 0.01889571 15.26929
92.81103 351.9367 358.5773 17.23747
92.84344 350.8939 358.0325 17.57475
92.87547 351.3117 357.5615 14.3722
92.90574 356.0853 355.8195 9.459022
92.93907 359.1217 356.6263 8.273644
92.9724 359.2852 355.5563 7.802924
93.00574 354.1644 354.9496 5.90504
93.03794 348.7916 353.7313 2.451912
93.07127 344.8192 352.7682 1.222569
93.10407 342.1822 354.1529 0.670148
93.13615 343.3506 355.5992 0.4017942
93.16949 342.99 352.6386 2.355051
93.19879 343.779 352.1673 0.5983805
93.23212 343.6292 349.6595 2.493391
93.26147 340.2172 348.4665 4.925756
93.29374 337.9637 347.6945 2.833019
93.32707 337.6646 347.6534 358.7379
93.3573 344.4656 349.6165 357.6761
93.39063 350.5771 346.0331 0.116029
93.41933 351.7621 347.0621 359.2789
93.45085 354.4081 346.0875 358.3875
93.47993 355.1646 344.3975 0.07508991
93.51165 353.1842 345.6074 0.5525783
93.54427 353.4832 345.7555 0.9059141
93.57719 355.5855 344.8458 1.122326
93.60957 357.4218 343.8717 359.9385
93.63911 359.7379 343.0568 357.7874
93.67174 0.2020663 342.9637 356.8827
93.70035 0.5916951 342.6828 355.1203
93.73368 359.9789 342.7727 353.0474
93.76187 359.8125 343.5202 351.5857
93.79437 1.039084 343.2347 349.5809
93.82651 2.451632 342.5728 348.4438
93.85984 3.88277 341.1742 348.7485
93.89166 5.37392 339.3577 349.6322
93.92183 6.206346 338.3014 350.4955
93.95047 6.479427 337.8852 349.8429
93.981 6.617507 338.37 349.522
94.01129 7.562871 339.2101 350.3586
94.04093 9.047212 340.5901 350.5062
94.07005 9.213605 342.4849 351.0646
94.10339 8.910378 344.0729 351.9352
94.13672 7.912504 345.9288 352.9635
94.16669 6.432698 346.4716 353.1296
94.19772 5.58996 345.8915 353.2049
94.22932 5.754295 344.3488 351.8362
94.26019 5.004423 343.1865 350.7031
94.29032 3.84652 342.719 350.2253
94.31975 4.733567 342.8491 349.7268
94.35308 7.8487 342.1434 348.308
94.38159 12.1137 340.8246 345.8799
94.41086 17.0369 343.8385 346.949
94.44419 16.43696 346.0588 349.2564
94.47363 16.4315 345.0163 349.8317
94.50498 16.89171 344.5714 349.9335
94.53622 18.15298 343.6314 349.0484
94.56579 17.21785 346.0844 350.504
94.59607 16.72899 346.6372 350.5774
94.62941 17.96322 348.1654 350.2858
94.65846 17.07553 349.5176 351.0562
94.68994 13.25641 349.8011 352.0722
94.72327 11.25363 350.2414 353.0406
94.7551 9.364951 350.9856 354.0392
94.78811 7.568735 351.854 353.933
94.81963 5.23459 351.6871 357.7827
94.85005 4.712458 351.2346 357.6298
94.88174 3.324857 352.0717 355.9788
94.91432 1.879854 353.0524 354.5071
94.94411 2.009682 353.6984 354.8341
94.97347 2.625391 354.0502 354.4739
95.00482 2.770469 355.1258 354.2745
95.03477 3.091274 356.2705 354.7629
95.06605 6.150396 356.2582 353.5526
95.09809 6.960761 355.6802 353.5353
95.12699 8.896473 355.434 354.3874
95.15651 10.50332 353.2915 353.2606
95.18625 10.72748 352.6948 353.0021
95.21532 11.17266 353.1414 352.4776
95.2468 10.9416 353.8836 352.6752
95.27794 10.79823 354.0256 353.1374
95.30788 11.29158 354.3936 353.3895
95.34122 11.82272 353.6984 353.2033
95.37124 11.92086 353.8005 353.5915
95.40224 11.41671 353.7019 353.5154
95.43558 10.16415 353.811 354.6844
95.46693 10.7382 353.6265 355.3459
95.49927 11.94464 352.483 355.8732
95.52818 12.35808 351.1776 356.0615
95.55922 12.82335 350.4344 356.0755
95.58938 13.11177 349.476 355.8817
95.62028 12.52465 349.0596 355.4236
95.65338 12.67213 350.0042 355.7895
95.68671 13.82271 351.2324 355.6924
95.71867 15.58306 352.5611 355.4843
95.74781 17.70882 353.9889 356.8978
95.78113 20.07705 354.4125 356.4333
95.81446 22.60051 355.0486 355.5652
95.84501 25.14536 355.0715 354.4153
95.87424 26.58234 355.5047 354.1019
95.90469 27.82048 354.5611 354.5349
95.93536 26.42428 354.0579 355.8574
95.9687 23.68594 354.3427 356.5212
96.00143 20.88365 354.9607 356.5831
96.03088 18.07085 356.1581 357.5346
96.06023 22.05306 356.3761 357.7026
96.09322 27.07821 354.7145 356.662
96.12308 29.30896 352.5667 355.3231
96.15397 29.29166 349.4683 353.8647
96.18279 25.9143 348.1884 353.8499
96.21257 24.05781 349.2761 354.7162
96.2459 24.48764 349.8346 354.733
96.27924 22.56447 350.7149 355.7095
96.31258 19.05747 352.2627 356.8752
96.34224 17.74227 352.4952 356.9192
96.37524 13.40778 352.866 357.0801
96.4085 11.48569 352.78 357.095
96.44183 9.624939 352.7451 356.5019
96.47517 7.494508 353.2007 355.9883
96.50649 6.679363 353.6179 355.4327
96.53613 5.072958 354.5488 355.7211
96.56947 3.035531 355.7057 356.1428
96.59908 1.862101 359.0721 356.9956
96.63172 1.491087 0.5753682 358.2724
96.66341 0.2778122 2.582377 359.1786
96.69389 359.1662 4.625158 358.4721
96.72514 358.5712 5.543957 358.8673
96.75565 359.0032 6.048151 358.2487
96.78621 359.5257 5.789377 357.4633
96.81746 0.687309 4.641033 356.6378
96.85065 1.102266 3.942314 357.205
96.88142 1.311 2.740016 357.7152
96.91208 1.719146 1.935544 357.8047
96.94541 2.197962 1.7526 358.1965
96.97581 1.989989 1.714062 357.5428
97.00915 1.530671 2.04895 356.5059
97.03845 0.3629416 2.094441 355.6667
97.06982 359.8649 2.387109 356.5831
97.09979 0.2040854 3.782958 357.5351
97.12923 359.4812 4.687589 357.1129
97.1605 358.3376 4.928483 358.1045
97.19 357.5995 4.511673 0.1324893
97.21867 356.4904 2.237184 1.899954
97.24886 356.2713 0.9479269 3.197406
97.27805 355.4774 359.8244 1.437733
97.3083 354.2766 359.4877 1.28117
97.33759 354.3966 3.626997 2.156492
97.37093 354.5027 6.502079 1.980175
97.40179 355.0216 7.99443 3.386332
97.43291 356.7897 9.275979 3.057878
97.46625 359.5107 10.06953 2.373116
97.4948 359.7247 8.75671 3.446719
97.52581 0.03074108 8.085637 4.660078
97.55914 359.3737 7.877618 4.125833
97.58768 358.7747 8.597235 2.974275
97.61728 357.5952 9.986847 2.618969
97.64699 356.2995 12.53891 3.506699
97.67746 356.8375 14.9064 3.28396
97.70667 356.2588 18.27946 2.666829
97.73975 355.8533 18.88331 2.328465
97.77308 354.7462 15.86211 1.74611
97.80289 355.159 15.03009 1.861744
97.83285 354.1309 14.84357 1.409859
97.86242 353.9752 14.78117 1.382418
97.89286 354.575 14.40891 2.783786
97.92619 355.7183 14.41986 2.905632
97.95844 356.073 16.42883 2.84148
97.98841 355.0899 16.62183 1.926071
98.01752 355.0833 16.96169 1.012873
98.04688 354.1322 18.94922 0.8749942
98.07709 354.1485 23.84029 359.7217
98.11022 355.8961 27.22156 0.31727
98.139 355.9672 27.09377 2.242348
98.17233 356.5857 25.31325 2.76336
98.20193 356.8826 22.89412 2.526889
98.23162 357.3012 20.70627 2.41387
98.26495 357.1715 18.35606 2.205105
98.29394 356.9568 17.04353 1.793698
98.32289 356.7126 16.78911 1.613356
98.35354 355.8481 16.89665 1.123342
98.38524 355.5198 15.66461 2.527143
98.4143 355.11 14.30814 3.513989
98.44654 355.2237 13.16605 3.731301
98.47948 355.0927 10.58743 4.191868
98.50877 354.841 8.360848 3.07426
98.54134 354.3633 7.416069 2.222416
98.57148 353.706 7.238532 359.3109
98.60287 351.7244 8.909759 354.6929
98.63372 348.1854 9.827493 354.0905
98.66705 345.4655 9.518508 356.0275
98.69663 344.3224 8.415874 358.6638
98.72569 343.8296 6.18033 1.555136
98.757 344.0992 4.425253 3.493411
98.78738 345.1521 1.527986 6.277472
98.82072 346.4756 358.3599 9.235588
98.84991 347.9997 355.3292 11.56669
98.88055 348.9967 354.1141 11.82707
98.91101 347.7178 355.3794 9.767361
98.94292 349.7362 354.2163 9.639847
98.97301 351.3158 353.9427 9.850762
99.00635 351.5775 353.6881 9.732403
99.03968 350.67 353.5473 8.997367
99.06968 349.5828 353.5432 8.962687
99.09931 349.079 352.8774 8.812986
99.13006 349.1266 353.0225 8.102433
99.16339 349.0309 353.1334 7.589157
99.19319 349.247 354.1693 6.588744
99.22653 349.4052 355.2592 5.623505
99.25753 349.7136 356.4632 4.493929
99.29086 350.3638 357.3003 4.058343
99.32273 350.4897 357.8969 4.358989
99.35125 350.7217 358.0207 5.812164
99.38193 351.0616 358.8385 6.58523
99.41526 351.023 359.3575 7.052146
99.44859 351.0759 0.3505872 7.839636
99.48064 351.7719 2.622938 6.981457
99.51073 351.5572 4.33292 6.593868
99.5396 350.9442 6.071751 6.427221
99.56879 350.5802 7.119734 6.585154
99.60151 350.0112 8.585544 6.541801
99.63369 350.1715 10.55759 5.643521
99.6636 349.7646 12.46134 4.190206
99.69485 349.4522 11.79942 5.64022
99.72696 348.4711 9.963152 6.188375
99.76027 349.7663 9.342865 5.743528
99.79094 350.531 10.10625 1.969738
99.82291 350.8773 9.259154 3.683773
99.85291 350.8333 9.98977 4.369177
99.88226 350.892 10.46115 3.176424
99.9148 351.5558 11.56507 2.65577
99.94471 351.6298 12.5586 2.375919
99.97517 352.4118 13.24063 2.155741
100.0085 352.9004 13.36848 2.319568
100.0386 353.2551 13.03407 2.35246
100.0719 354.0913 12.88299 2.154142
100.1043 354.3278 12.43762 1.055262
100.1343 354.7077 11.35737 0.2755066
100.1655 354.3406 9.638533 1.271266
100.195 354.3683 8.969856 1.643743
100.2248 354.1778 8.837873 2.189762
100.2558 353.3488 9.500057 3.323906
100.2845 353.1802 9.763441 2.142485
100.3166 351.7484 7.764986 1.551174
100.3499 351.2783 6.69849 1.461068
100.3794 350.8402 5.706128 1.36237
100.4099 351.4034 5.984028 1.312645
100.4428 350.9663 5.386283 1.245598
100.4723 349.6895 4.952593 1.090387
100.5031 350.5828 4.225615 0.9744208
100.5365 350.0878 4.068874 0.6961861
100.5653 349.2072 3.911922 0.3285941
100.5947 348.4631 3.832315 0.4393719
100.6243 348.1757 3.782053 0.7781999
100.655 347.5237 3.920529 0.5637664
100.6865 346.9018 4.632155 0.04703766
100.7159 347.1311 5.386364 0.3337294
100.7456 348.3189 5.696548 0.5605475
100.7758 349.2 5.589942 0.8856913
100.8091 349.7625 5.39541 1.520969
100.8394 350.5302 5.545477 1.661524
100.8716 350.6406 6.064683 1.405383
100.905 350.6985 7.018243 1.241394
100.9367 350.6825 8.166206 1.330045
100.966 350.3851 9.790208 1.166648
100.9956 349.1937 11.57182 1.796411
101.0289 348.2783 12.83398 2.298961
101.058 347.6758 15.7371 3.265501
101.0872 347.2725 17.39849 2.914379
101.1205 347.205 19.39299 2.881564
101.1538 347.2638 21.5798 2.64853
101.1838 347.7592 23.76433 1.826839
101.213 348.3856 25.90564 1.44752
101.243 348.1281 27.36503 1.246155
101.2763 347.9898 29.49159 0.7073795
101.3046 347.7763 31.27989 0.3469278
101.3337 347.5558 32.44192 0.1839592
101.3646 347.6353 33.32709 359.8701
101.398 347.3318 34.11855 359.4955
101.427 347.2202 34.57734 359.0855
101.4581 346.9069 34.85357 358.6516
101.4873 346.5235 34.93385 358.2274
101.52 346.9438 35.06159 357.9948
101.5513 347.1871 35.37397 357.312
101.5846 347.3493 35.76048 356.6055
101.6179 348.305 36.00014 356.9746
101.6484 348.8447 35.50951 357.1284
101.6779 348.5627 34.16402 358.0496
101.7079 348.1966 32.38976 358.8423
101.7381 347.5259 29.67762 358.2484
101.7693 347.0572 27.99098 357.7993
101.8027 347.114 26.55615 358.1945
101.8322 347.5961 24.69206 358.4469
101.8617 347.936 24.48404 358.1016
101.8951 348.0899 24.99766 357.7163
101.9255 348.5615 26.30874 357.9153
101.9589 349.2139 28.03527 357.6182
101.9922 349.2114 30.00362 357.4937
102.0255 349.295 32.4744 357.5454
102.0571 349.4158 34.17636 357.3955
102.0865 349.727 35.58883 357.69
102.1164 349.7972 36.51829 357.6616
102.1445 349.5565 38.08427 357.4749
102.1778 349.4651 39.1993 357.4937
102.2112 349.4793 40.62594 357.4053
102.24 349.231 42.02715 357.1823
102.2695 349.1457 42.95717 357.0458
102.3029 349.1444 43.94419 356.9255
102.3303 349.2828 44.81705 356.8356
102.3606 349.562 45.58088 356.7053
102.3919 349.8095 46.27771 356.5349
102.4206 350.0831 47.04573 356.2662
102.4515 350.1218 47.38186 356.1339
102.4838 350.3426 47.94657 355.9971
102.5139 350.3664 48.76633 355.67
102.5454 350.1807 49.57869 355.6813
102.5748 350.1112 50.69589 355.8728
102.6031 350.1082 51.59635 356.0536
102.6353 350.0959 52.14288 356.1075
102.6687 350.0669 52.94514 356.0864
102.6989 350.0522 53.71698 356.1109
102.7316 349.9926 54.4702 356.1638
102.7635 349.9185 55.38673 356.1004
102.7969 349.655 56.19514 356.0607
102.8302 349.6326 56.83352 355.8787
102.8632 349.6484 57.06251 355.78
102.8945 349.5896 56.95011 355.6856
102.9239 349.6378 56.3185 355.5762
102.9562 349.671 54.92502 355.6167
102.9896 349.4618 53.14024 355.713
103.0187 349.3852 50.63681 355.8194
103.048 349.4509 48.37394 355.897
103.0783 349.7354 44.94943 356.0597
103.1077 350.0717 40.48998 356.3164
103.1381 350.2639 37.09405 356.4273
103.1697 350.469 32.75664 356.7046
103.2001 350.9304 28.18809 356.9986
103.233 351.0603 23.93369 357.605
103.2617 351.5658 20.36926 358.3695
103.2914 352.2049 18.11775 358.6585
103.3239 352.6668 15.20879 359.0934
103.3529 353.2866 12.41889 359.4281
103.3818 354.0627 10.84322 359.389
103.4149 354.8091 8.178236 359.8548
103.4433 354.8082 5.784873 0.7116914
103.4745 355.1728 4.095601 0.9617833
103.5052 355.7966 1.662742 0.9651337
103.5383 356.3899 358.8605 1.108847
103.5677 357.0927 356.1644 0.5451764
103.5971 357.6895 354.5863 0.09797405
103.6276 358.0237 352.9051 359.9803
103.6597 358.0823 351.3246 -0.0006115243
103.6895 358.4401 350.1831 359.9237
103.7202 358.5451 349.8809 359.9291
103.7511 358.514 349.9851 0.0934303
103.7845 358.6518 350.5081 0.3052421
103.8134 358.852 351.4386 0.4591696
103.8426 358.7993 352.7418 0.5651702
103.8757 358.8148 353.5332 0.5765214
103.9066 358.8004 354.6737 0.4989994
103.9361 358.5308 355.7247 0.7601922
103.9694 358.2657 356.2829 0.9627829
103.9996 358.4372 356.9277 0.6905158
104.0291 358.64 357.4478 0.6823049
104.0606 358.9452 357.6318 0.6898572
104.0913 359.3967 357.7127 0.8356893
104.1208 359.3477 357.5121 0.846448
104.1497 359.6157 357.1744 0.7403111
104.1817 0.1794055 356.6159 0.8869385
104.2126 0.2346846 356.207 1.199744
104.2442 359.9581 356.3706 1.343529
104.2731 359.7063 356.5281 1.797095
104.3057 359.635 356.7729 2.011057
104.3349 359.6451 357.2332 2.331202
104.3644 359.8824 357.6504 2.598007
104.395 359.9655 357.8704 2.527291
104.4251 359.9801 358.002 2.347193
104.4576 0.4915686 357.8355 2.075798
104.4871 0.7500246 357.6102 2.052274
104.5174 0.7490489 357.5308 2.011019
104.5463 0.6994541 357.2959 2.065628
104.5771 0.1761411 357.0189 2.114765
104.6093 -0.00440023 356.8266 2.03693
104.6392 359.7762 356.684 1.831511
104.6684 359.2822 356.7155 1.734676
104.7017 358.8071 356.9557 1.489555
104.7304 358.1125 357.3593 0.8578334
104.7615 357.7283 357.8313 0.471475
104.792 357.1877 358.565 359.9819
104.8233 357.5953 359.3134 359.7637
104.8565 357.8682 359.9312 0.06973352
104.8898 357.5058 0.505116 0.4246716
104.9223 356.7366 0.9228886 0.4088573
104.9557 356.0214 1.110718 0.2800968
104.9867 355.8727 1.16534 0.01929175
105.017 355.3835 1.19555 359.5916
105.0503 355.5611 1.340777 359.3717
105.0805 355.8549 1.422199 359.3348
105.1089 355.3427 1.582066 359.4246
105.1385 355.0276 1.646563 359.463
105.1717 354.8596 1.709493 359.5433
105.205 354.2714 1.779843 359.5588
105.2342 354.2959 2.007936 359.2757
105.2675 354.6356 2.183434 359.126
105.3006 355.2652 2.533049 358.9902
105.3339 356.0012 2.895552 359.1692
105.3628 357.126 3.045923 359.4349
105.3928 357.2488 2.892871 359.5001
105.4241 356.7873 2.441235 359.6863
105.4539 356.5467 1.974456 359.6633
105.4844 356.4683 1.80491 359.301
105.5177 356.7479 1.737779 359.0682
105.5508 357.0566 1.752806 359.1318
105.5804 356.7844 1.784799 359.2705
105.6115 356.9195 1.884176 359.4236
105.6412 357.1955 2.075732 359.5415
105.671 357.1443 2.24448 359.5182
105.7044 357.418 2.334667 359.5506
105.7351 357.4747 2.663445 359.8329
105.7648 357.4128 3.018051 359.9709
105.7981 357.6214 3.285351 0.1494504
105.8294 357.9858 3.411099 0.3905617
105.8625 358.8433 3.491812 0.7408738
105.8933 359.8348 3.586867 0.9704173
105.9235 0.2856503 3.719394 1.083199
105.9552 0.2505582 3.769591 0.9462422
105.9844 359.8893 3.812942 0.7411391
106.0153 358.9918 3.686253 0.4640415
106.0464 358.5017 3.497975 0.2695699
106.0756 358.1581 3.437631 0.2085344
106.1056 357.778 3.411198 0.1677334
106.1351 356.3688 3.534553 0.6490432
106.1653 355.4142 3.639273 0.6089796
106.1986 354.5868 3.836119 0.6112924
106.2304 353.5735 4.030863 0.5141167
106.2625 353.0082 3.95635 359.9434
106.2945 353.3851 3.88264 359.7772
106.3247 353.3182 3.692531 359.6719
106.358 353.2911 3.350925 359.715
106.3914 353.4243 3.101198 359.9917
106.4223 353.0997 3.065486 0.1685659
106.4557 352.75 3.096926 0.2172454
106.4848 352.0293 3.265884 0.3517957
106.5143 351.6714 3.401006 0.3352468
106.5445 351.3137 3.594251 0.2585564
106.5749 351.1071 3.71101 0.1305695
106.6048 350.9861 3.767653 0.1344023
106.6361 350.6223 3.978668 359.7983
106.6674 350.12 4.373335 359.4214
106.6981 350.2209 4.740639 359.3068
106.7315 350.3863 5.02877 359.3538
106.7616 350.2957 5.456272 359.4538
106.7906 350.3135 5.924481 359.562
106.8215 350.2782 6.191059 359.6866
106.8543 350.167 6.327732 359.5635
106.8874 350.4682 6.280578 359.4173
106.9174 350.5006 5.935507 359.0331
106.9507 350.428 5.584024 358.7076
106.9797 350.5584 4.997394 358.6773
107.0091 350.231 4.430793 358.2961
107.0399 349.9875 3.918193 357.5718
107.0689 350.4542 3.367435 357.5369
107.0988 350.7806 2.485217 357.6199
107.1321 350.3596 1.556702 357.1325
107.1607 350.6312 0.3711195 356.9816
107.1918 350.8859 358.768 357.3593
107.2209 350.5406 357.3472 357.5879
107.2497 349.3446 354.3293 357.9227
107.2824 348.4144 351.9255 358.0968
107.3116 348.2758 350.9951 358.428
107.3437 348.7803 350.0659 359.1317
107.3771 349.1485 349.211 359.7255
107.4104 348.8748 349.6237 0.1573754
107.4413 348.6003 350.9355 0.302869
107.4747 348.3639 352.6861 0.3824212
107.504 348.3269 354.8749 0.5752715
107.5358 348.2305 357.0327 0.5507947
107.5653 348.2374 358.9462 0.3991767
107.5948 348.6213 1.502722 0.3107933
107.6243 349.1037 4.1829 0.4466386
107.6548 349.5059 6.107544 0.522841
107.6867 349.9353 8.347648 0.5784667
107.72 350.1273 10.19889 0.7398665
107.7534 350.0085 11.44332 0.9568522
107.7867 349.5453 11.3222 0.8452179
107.82 349.1474 10.68373 0.6677065
107.85 348.5427 9.974256 0.3441778
107.8834 347.7435 9.393635 0.02236564
107.9167 347.7779 9.062721 359.9277
107.95 347.8195 9.398333 359.8206
107.9794 347.8631 10.14034 359.6935
108.0094 347.6895 11.6181 359.5891
108.0427 347.7984 13.08922 359.5258
108.0743 347.794 17.46089 359.5714
108.104 347.7792 22.55653 359.8299
108.1374 347.9744 25.7593 359.8474
108.1664 348.0536 31.90795 0.1040765
108.1955 348.1798 34.80221 0.281057
108.2262 348.0848 37.9333 0.6389912
108.2558 348.2504 40.43066 0.8087561
108.2863 348.3915 41.50855 0.9335834
108.3162 348.617 41.94426 1.040382
108.3465 348.8441 41.0208 0.7700514
108.3752 348.918 39.77654 0.4219331
108.4051 349.199 37.38369 359.7686
108.4356 349.2314 35.80161 359.3568
108.4689 349.3098 33.07204 358.9525
108.4998 349.6307 29.85207 358.6311
108.53 350.0968 25.94821 358.349
108.559 350.5407 22.95213 358.1927
108.5897 350.5379 18.83085 358.0718
108.6194 350.8451 14.7055 358.0979
108.6501 351.1336 11.94514 358.205
108.6834 350.9728 8.933718 358.4206
108.7168 350.9497 6.879944 358.3058
108.7501 351.1791 5.329798 358.176
108.7834 350.602 4.447829 358.2878
108.8154 350.376 3.922721 358.3811
108.8487 350.5015 3.409847 358.1508
108.882 350.6071 3.223423 357.8917
108.9154 350.7256 3.118567 357.6948
108.9444 351.0881 2.940096 357.7205
108.9735 351.5603 2.987096 357.7474
109.0069 351.8854 3.106533 357.8722
109.0358 352.0925 3.227031 358.3688
109.0659 352.3383 3.416276 358.7159
109.0965 352.0966 3.615486 358.8695
109.1271 351.8005 3.849092 358.9969
109.1578 351.7079 3.960683 359.0705
109.1879 351.4352 4.173348 359.1571
109.2201 351.2948 4.444895 359.1938
109.2534 351.3182 4.791919 359.1814
109.2862 351.2511 5.156082 359.3809
109.3192 351.2758 5.608669 359.4326
109.3513 351.2003 6.031443 359.3915
109.3812 351.0764 6.445688 359.3405
109.4146 351.0519 6.794824 359.2897
109.4478 350.9225 7.032518 359.1953
109.4794 350.7295 7.185039 359.1374
109.508 350.5707 7.219885 359.1269
109.5376 350.4999 7.117382 359.2079
109.5672 350.4288 6.425244 359.7535
109.6001 350.2356 5.782209 0.1265407
109.6297 349.7575 4.970536 0.4448555
109.6628 349.5399 4.492758 0.4656412
109.6949 349.3416 4.570035 0.3157485
109.7282 349.1021 5.001907 0.2370689
109.7616 349.0356 5.83503 359.8685
109.7949 348.9981 6.902646 359.5675
109.8267 349.168 8.145583 359.4307
109.8584 349.1043 9.527198 359.1637
109.8892 348.9675 11.06176 358.7971
109.9196 348.863 12.58929 358.482
109.9513 348.5929 14.13454 358.2516
109.9821 348.4478 15.23791 358.0128
110.0142 348.3489 16.54835 357.7625
110.0435 348.3105 17.86843 357.464
110.0755 348.2293 18.8965 357.307
110.1088 348.09 19.06091 357.9341
110.1379 347.5508 18.70232 358.2125
110.1691 347.1327 18.4023 358.2309
110.2 346.7716 18.02347 358.184
110.2309 346.701 17.68305 358.0091
110.2637 346.7037 17.5445 357.6793
110.2927 346.5518 17.81261 357.3468
110.326 346.3701 18.34542 357.0286
110.3593 346.336 19.48274 356.5752
110.3901 346.381 20.76984 356.3735
110.4234 346.4056 22.41798 356.1401
110.4545 346.4195 24.16958 355.7454
110.4843 346.3324 26.16307 355.4603
110.5142 346.4444 27.98757 355.3741
110.5434 346.5949 30.17085 355.0949
110.5731 346.2943 33.80048 354.9674
110.6053 346.2495 36.90986 355.0763
110.6386 346.7103 40.13244 355.0083
110.6711 347.4745 42.57599 354.7209
110.7007 348.1926 43.57379 354.3844
110.7341 348.536 44.00696 354.0654
110.7643 349.1404 44.17754 353.2343
110.7976 349.4345 43.95663 352.789
110.8266 349.52 43.42186 351.8336
110.8599 349.4008 43.25727 351.6375
110.889 349.4247 42.62011 351.5873
110.9191 349.5529 42.10911 351.5339
110.9525 349.4161 41.40275 351.5175
110.985 349.2683 40.40314 351.4392
111.0134 349.1368 39.63148 351.5808
111.0429 349.0677 39.16448 351.6282
111.0762 349.0666 38.56604 351.6795
111.1046 349.0074 37.88269 351.8833
111.1379 348.8489 37.25303 352.0254
111.1697 348.7486 36.45744 352.4045
111.2017 348.6426 35.40393 352.8511
111.2345 348.5998 34.10519 353.0327
111.2637 348.5706 32.32455 353.2859
111.2938 348.5652 31.09444 353.3269
111.3254 348.9385 28.48457 354.2297
111.3555 349.047 25.96251 355.066
111.3843 349.3825 22.7335 355.7103
111.4146 350.2571 18.37127 356.6166
111.4444 350.5885 14.68003 357.3258
111.4739 351.403 10.86372 358.0164
111.5059 352.1295 7.950368 358.6281
111.5392 353.0411 6.110379 358.9304
111.5716 354.1761 5.896995 359.0428
111.6023 355.0437 7.802604 359.3853
111.6318 355.7844 9.003969 359.7685
111.6651 356.1364 10.01681 0.6241123
111.695 355.8474 10.84026 1.463506
111.7283 356.1812 11.00863 1.924443
111.76 357.2662 10.80497 2.605381
111.7933 358.9071 10.27993 3.310803
111.8266 1.06483 9.530125 3.93132
111.8557 2.836793 8.467148 4.50539
111.889 4.796053 7.07359 4.97905
111.9195 6.718237 5.23719 4.988065
111.9496 7.539773 3.753418 4.529443
111.981 7.731663 1.491249 3.295563
112.0108 6.860848 359.3278 2.60094
112.0398 6.908923 357.5266 2.163178
112.0731 6.859129 356.4307 1.68302
112.1023 6.802632 355.0967 1.16207
112.134 6.91232 354.039 0.7462898
112.1645 7.104332 353.3552 0.3941378
112.1947 7.258301 353.0266 0.1582641
112.226 7.637216 352.8539 359.8637
112.2594 7.796261 352.8055 359.5917
112.2924 7.901807 352.8737 359.3727
112.321 7.93618 352.9527 359.3824
112.3543 7.863916 352.8663 359.376
112.3848 7.774401 352.6674 359.4649
112.4181 7.640413 352.5912 359.5597
112.4514 7.638025 352.4347 359.7057
112.4832 7.962447 352.3156 359.8076
112.5118 8.074956 352.3702 359.7515
112.5451 8.258826 352.5943 359.5146
112.5752 8.20335 352.9886 359.0692
112.6042 8.138173 353.2553 359.0424
112.6376 8.167389 353.3962 359.0323
112.6705 8.078215 353.7382 359.1302
112.6996 8.043715 353.9788 359.3835
112.7305 8.07527 354.5386 359.5111
112.7599 7.866456 356.2893 359.7987
112.7932 7.956075 357.6779 359.9751
112.8229 8.042551 0.5853171 0.2781547
112.8526 8.049003 2.108798 0.4638975
112.8823 8.141876 4.178974 0.632312
112.9156 8.16607 6.176178 0.7276162
112.949 8.282022 7.871432 0.7290725
112.98 7.704693 8.695241 0.3815033
113.0118 7.262497 8.301485 359.7742
113.0448 7.227913 7.089606 358.7855
113.0776 7.550818 5.454173 357.8258
113.1109 7.710819 3.6415 356.8792
113.1422 8.065705 1.855599 356.1538
113.175 8.130565 0.2364017 355.9343
113.2077 8.176864 358.7787 356.0717
113.2372 8.293587 357.494 356.168
113.2694 8.051488 356.6456 356.2306
113.2995 7.490624 355.6573 356.1344
113.3314 6.533085 355.1002 355.9076
113.3621 5.998446 354.9106 355.971
113.3919 5.367611 355.205 356.0282
113.4232 4.447129 356.0739 356.3276
113.453 3.838103 357.1824 356.5841
113.4831 3.707677 358.0485 356.7761
113.5134 3.530202 359.2073 356.9489
113.5423 3.415672 0.2995768 357.1636
113.5756 3.285459 0.9568838 357.2983
113.605 3.239579 1.511439 357.4453
113.6353 3.158849 1.805631 357.6535
113.6686 2.951192 1.925608 357.823
113.6992 2.712695 1.899454 358.0496
113.7326 2.262894 2.064484 358.3986
113.7644 1.77444 2.762071 358.8381
113.7965 0.6253532 5.726455 359.2803
113.8251 359.7468 11.57791 0.2787361
113.8584 359.4871 15.97038 1.224262
113.8916 358.3509 23.07448 2.358367
113.921 358.2071 29.57384 3.067833
113.9515 358.0456 34.24179 3.185991
113.9824 357.7376 39.80625 2.470085
114.0157 357.8603 43.80804 1.863983
114.0457 357.5632 45.90555 1.18433
114.0771 357.6925 46.98303 0.2115117
114.1094 358.4859 46.58007 359.6028
114.1411 358.8933 45.12493 359.1813
114.1717 359.3571 42.09878 358.479
114.2047 359.5498 38.31023 357.814
114.2344 359.4332 33.4807 357.1622
114.2678 359.2415 28.91599 357.2248
114.2964 359.2728 24.02054 357.0773
114.3297 359.2509 21.27172 356.7872
114.3622 359.4438 18.01489 356.6139
114.3955 359.5571 16.61477 356.5113
114.4266 358.3493 20.23252 356.6164
114.4573 358.1061 22.49043 356.5802
114.4858 357.9734 25.09128 356.437
114.516 357.992 27.68149 356.6124
114.5461 357.9792 29.57377 356.8775
114.5776 357.8038 32.53074 356.9182
114.6085 357.9722 35.07778 357.03
114.6378 358.0624 35.49303 356.9762
114.6665 357.9555 33.52531 356.0323
114.6993 358.646 28.97138 354.0228
114.7326 359.4658 23.04617 352.5384
114.766 359.1875 16.96946 350.9323
114.7968 358.0665 11.36626 350.7372
114.8278 357.4031 6.401502 351.6617
114.8591 357.0185 1.92526 352.5695
114.8915 356.4581 358.3826 354.3533
114.9249 356.3104 355.1662 355.921
114.9563 356.015 353.2796 356.9289
114.9868 355.6762 352.4579 357.4786
115.0185 355.2874 352.4295 357.8162
115.0484 355.0969 352.9166 358.0773
115.081 355.0076 354.1387 358.2574
115.1131 354.8947 356.4022 358.4279
115.1464 354.761 359.1248 358.3949
115.1798 354.7028 1.95673 358.3922
115.2097 354.5506 5.075127 358.4139
115.2384 354.4716 7.301361 358.3813
115.2696 354.2831 9.56961 358.3424
115.2993 353.982 11.51095 358.2262
115.3326 353.8984 12.39141 358.2191
115.3621 353.301 13.34881 358.4128
115.3931 352.9359 13.71846 358.3581
115.4237 352.6975 13.83822 358.4632
115.4553 352.4351 13.88319 358.6315
115.4886 352.3549 13.94879 358.6239
115.5201 352.2644 14.05506 358.5798
115.5499 352.1455 14.35078 358.5178
115.5809 352.1305 14.76383 358.4318
115.6142 352.0371 15.40341 358.344
115.6448 352.0059 16.22885 358.2014
115.6744 351.8019 17.1975 357.9967
115.7046 351.6046 18.26435 357.7013
115.7379 351.5148 19.37946 357.418
115.7683 351.3834 20.3607 357.3582
115.7986 351.3049 21.07718 357.2155
115.8314 351.2603 22.05026 357.1422
115.8617 351.2132 22.85848 357.192
115.8899 351.1198 23.51893 357.2612
115.9196 350.8465 23.94326 357.3928
115.9529 350.5903 24.54193 357.461
115.9835 350.2122 25.08248 357.509
116.0168 349.7961 25.66258 357.4405
116.0499 349.2849 26.2516 357.3936
116.0805 348.7363 27.06989 357.3627
116.1126 348.4062 28.05622 357.2592
116.1459 347.8793 29.38234 357.2575
116.1761 347.6583 30.83736 357.2281
116.2094 347.2281 32.3801 357.046
116.2415 346.8597 34.48693 356.8116
116.2716 346.85 36.24721 356.5147
116.3046 346.6909 37.57883 356.4839
116.3366 346.6119 39.02359 356.241
116.3665 346.8432 39.98363 355.9595
116.3985 346.8161 41.07975 355.5829
116.4306 346.4824 42.12415 355.3543
116.4628 346.238 43.28046 355.073
116.4919 346.1524 44.36264 355.0721
116.5215 346.1864 45.08421 355.1122
116.5523 346.1936 46.03659 355.0699
116.5828 346.1531 46.93267 354.9224
116.6162 345.8992 47.89025 354.9706
116.6495 345.8584 48.99381 355.1092
116.6823 345.8069 50.19035 354.9278
116.714 345.6628 51.61895 354.7869
116.7452 345.6537 52.82913 354.6261
116.7748 345.7159 53.60123 354.4879
116.8031 345.8721 54.67552 354.2024
116.8361 346.1843 55.47705 353.9269
116.8694 346.6642 55.90491 353.5596
116.8992 347.0816 56.18111 353.209
116.9301 347.3855 56.32663 353.1725
116.961 347.7775 56.41677 353.2732
116.9901 347.9872 56.4104 353.2045
117.0234 347.9381 56.3293 353.0717
117.0529 347.9571 55.96628 352.9504
117.0858 347.9099 55.63792 353.036
117.1174 347.6956 55.27549 353.0142
117.1474 347.8416 55.09115 353.1041
117.1807 347.902 54.83797 353.3522
117.214 348.1107 54.63282 353.5244
117.2428 349.1336 53.63825 353.8803
117.2761 350.0814 52.24203 354.3055
117.3075 352.4159 48.02268 355.0379
117.3378 355.8228 41.79465 355.3277
117.3674 359.3578 34.50588 355.7271
117.3975 1.805117 27.1164 355.7222
117.4308 1.727353 23.10047 355.9308
117.4617 0.6283853 19.97737 356.1573
117.4941 0.3927687 17.63425 356.3923
117.5251 358.8212 14.91163 356.5484
117.558 358.5659 12.86838 356.348
117.5912 359.3814 10.99865 356.2327
117.6206 0.5853942 8.807012 356.4888
117.6539 1.163255 7.418048 356.8152
117.685 2.125715 5.273414 356.9467
117.7183 2.478575 4.406165 356.9518
117.7516 2.643372 3.110479 357.0071
117.7837 2.545455 1.794697 356.8639
117.817 2.70527 1.381884 356.8405
117.8503 3.01466 0.8144646 356.9194
117.8789 3.576437 0.4689453 356.9905
117.9097 3.650943 0.3283035 357.0863
117.9403 3.591022 0.3318348 357.2772
117.9712 3.841708 0.3798611 357.7695
118.0019 3.87996 0.3448634 358.0561
118.0328 4.046408 0.2940075 358.1347
118.0649 4.268491 0.2173635 358.2525
118.0964 4.14407 0.1170783 358.3555
118.1297 4.141686 0.009557709 358.3893
118.1591 4.294303 359.7708 358.4493
118.1905 4.344035 359.5327 358.4578
118.2211 4.342851 359.3177 358.4094
118.2539 4.458262 359.1906 358.4121
118.2872 4.455177 359.0341 358.3738
118.3188 4.274523 359.0051 358.3694
118.348 4.295048 359.0213 358.3457
118.3777 4.252542 359.1548 358.3257
118.4077 4.123381 359.2704 358.3627
118.4387 3.87623 359.4532 358.4716
118.4712 4.004856 359.6781 358.4958
118.5006 4.095887 359.8197 358.3742
118.5339 4.227623 359.9042 358.3913
118.5672 4.425339 359.6986 358.3515
118.6006 4.474702 359.3438 358.2832
118.6304 4.440619 359.0147 358.3779
118.6603 4.446107 358.8328 358.3823
118.6911 4.28432 358.847 358.4083
118.7215 4.215718 359.1688 358.5313
118.7527 4.4742 359.7153 358.7692
118.786 4.433382 0.377591 359.0297
118.8172 4.277699 1.140312 359.1083
118.8468 5.176239 1.755375 359.1678
118.8768 5.741913 2.364966 359.0746
118.9086 5.592796 2.668621 358.9063
118.9385 5.860532 2.703076 358.902
118.9718 5.937382 2.550669 358.854
118.9997 6.338864 2.258214 358.8135
119.033 7.068278 1.933214 358.808
119.0645 7.32129 1.364027 358.6269
119.0943 7.343043 0.8237462 358.6148
119.1277 6.550173 0.4236408 358.5691
119.1567 6.517143 0.1899253 358.5877
119.1867 7.192492 0.1640026 358.5109
119.2191 7.662457 0.1659264 358.6236
119.2502 7.523194 0.07489271 358.7166
119.2794 6.88658 359.903 358.6368
119.309 7.07473 359.8365 358.6437
119.3412 7.402172 359.7646 358.5664
119.3699 7.407856 359.551 358.6389
119.4013 7.450831 359.3452 358.6865
119.4313 7.642638 359.2068 358.7544
119.4647 7.635316 358.9506 358.7852
119.4968 7.572903 358.7002 358.7715
119.5285 7.720626 358.4762 358.7421
119.5586 7.702796 358.527 358.7258
119.5919 7.476103 358.8143 358.7441
119.6248 7.345193 359.206 358.8052
119.6538 6.839931 359.6364 358.8876
119.6832 6.400791 0.1527834 358.9431
119.7165 6.523304 0.4984771 359.0406
119.7469 6.77158 0.811877 359.0476
119.7767 6.719361 0.8967365 359.0206
119.8079 6.762026 0.8842168 359.0197
119.8402 6.626782 0.8128636 358.919
119.8702 6.359101 0.7819238 358.7538
119.9002 6.221643 0.780911 358.7813
119.93 6.076809 0.8786618 358.7753
119.9631 5.777057 1.115544 358.8109
119.9916 5.293914 1.416948 358.8371
120.0202 4.97216 1.571169 358.7687
120.0535 4.517106 1.840717 358.7486
120.0868 4.068916 2.050167 358.5589
120.1202 3.970285 2.075389 358.4408
120.152 3.840984 2.032197 358.4577
120.1853 3.712648 1.924413 358.3841
120.2143 3.643018 1.732344 358.3318
120.2457 3.487577 1.586957 358.3662
120.277 3.32263 1.412335 358.3338
120.3067 2.924435 1.306759 358.3548
120.3394 2.796574 1.317697 358.3593
120.3728 2.812936 1.376136 358.3023
120.402 2.466976 1.572691 358.3812
120.4354 2.339941 1.763178 358.571
120.4675 2.181679 2.10341 358.7234
120.4981 2.211269 2.479247 358.754
120.5311 2.18482 2.993463 358.8573
120.5645 2.131149 3.644456 358.9279
120.5945 2.004618 4.249971 358.9377
120.6276 1.778459 4.792726 358.9259
120.6609 1.652375 5.652257 358.8637
120.6915 1.862536 6.393544 358.8627
120.7216 2.022105 6.924389 358.837
120.7516 2.100313 6.977967 358.4581
120.7849 2.252374 6.7958 357.91
120.8179 2.351339 6.826679 357.5807
120.8512 2.183773 6.923504 357.5273
120.8829 2.091764 7.133142 357.6226
120.9162 1.994857 7.45987 357.8654
120.9461 1.771438 7.737878 358.1336
120.979 1.714548 7.967901 358.3118
121.0123 1.815869 8.243593 358.5856
121.0422 1.929724 8.543758 358.6907
121.0723 2.094679 8.842216 358.5978
121.1016 2.29111 9.098295 358.4007
121.1349 2.295244 9.314162 358.2302
121.1661 2.164751 9.599224 358.1291
121.1994 2.251076 9.841006 357.9565
121.2327 2.269532 10.09884 357.9667
121.2637 2.430474 10.23132 357.9901
121.2971 2.572651 10.31414 357.9781
121.3301 2.713693 10.25887 358.0066
121.3587 3.206878 10.02788 357.9329
121.3901 3.885951 9.763732 357.8207
121.4204 4.22458 9.551746 357.7046
121.453 4.068359 9.429904 357.6658
121.4858 3.860115 9.313207 357.7904
121.5182 3.567183 9.207047 357.8612
121.548 3.613998 9.118217 357.8091
121.5787 3.673324 8.99708 357.873
121.6119 3.751767 8.808291 357.9042
121.6443 3.942598 8.659814 357.8465
121.6762 4.142285 8.549862 357.899
121.7095 4.059457 8.473306 358.0177
121.7375 3.817082 8.416827 358.1068
121.7682 3.687561 8.379785 358.167
121.7979 3.520782 8.387674 358.2561
121.8264 3.401511 8.34758 358.3242
121.858 3.351537 8.294505 358.2608
121.8878 3.155245 8.239568 358.247
121.9212 2.959384 8.140399 358.2894
121.9512 2.602034 8.002506 358.2442
121.9802 2.075184 7.762569 358.2869
122.0091 1.638193 7.598689 358.2251
122.0401 0.9029822 7.348547 358.1279
122.0734 0.1832651 7.088451 358.1801
122.1029 359.3824 7.004558 358.3048
122.1324 358.6012 6.694321 358.2707
122.1658 358.2914 6.553161 358.3243
122.1967 357.5943 6.27348 358.4077
122.2285 357.0403 5.99958 358.3344
122.2619 356.7446 5.718054 358.4389
122.2938 356.1008 5.383412 358.4997
122.3228 355.7512 5.049989 358.441
122.3524 355.5179 4.74995 358.4752
122.384 355.1331 4.352999 358.5654
122.4167 354.9048 3.995499 358.6709
122.4456 354.9223 3.671071 358.6844
122.4747 355.1305 3.39904 358.7172
122.5074 355.7205 3.153165 358.6154
122.5408 356.4097 3.099285 358.6128
122.5708 356.7114 3.19157 358.6225
122.6019 356.4075 3.418269 358.8079
122.6314 356.3359 3.675079 358.9615
122.6612 356.0171 3.823668 358.9639
122.6924 355.652 4.038716 358.9351
122.7239 355.7644 4.205853 358.8434
122.7541 356.0154 4.370638 358.7379
122.783 356.1274 4.381368 358.7339
122.8163 356.3012 4.256832 358.7801
122.8462 356.6599 3.919018 358.9028
122.876 356.7816 3.219423 359.0266
122.9093 356.8495 2.610801 359.0362
122.9384 357.0044 1.33292 358.7361
122.9694 356.8062 0.04259137 358.5254
123.002 356.5031 358.76 358.4264
123.0318 356.2592 357.2202 358.5221
123.062 356.2391 356.0562 358.4753
123.0918 356.416 354.7414 358.512
123.1251 356.7866 353.4842 358.4785
123.1547 356.8965 352.4885 358.6014
123.188 357.1326 351.5942 358.899
123.2195 357.4281 351.0641 359.106
123.2529 357.2645 350.8053 359.3195
123.2818 357.1725 350.7988 359.4983
123.3127 357.3195 351.0641 359.7289
123.3444 357.2877 351.515 359.898
123.374 357.2969 352.48 0.05139851
123.4029 357.3938 353.7547 0.2324175
123.4338 356.9985 355.1512 0.3131664
123.464 356.7666 357.8086 0.594667
123.4931 356.6116 0.7452488 1.036144
123.5232 356.6123 3.026659 1.154907
123.5566 356.8116 4.423417 1.160261
123.5899 357.2116 5.979281 0.862202
123.6208 357.3519 7.187558 0.4128597
123.6534 357.0548 7.629486 0.3567722
123.6838 356.8129 7.92739 0.473445
123.7138 356.0832 8.032069 0.4112601
123.7471 355.9197 8.260992 0.17712
123.7769 355.8987 8.467607 0.1635393
123.8076 355.9633 8.63272 0.05985492
123.8374 355.8113 8.973536 359.8083
123.8703 355.6049 9.430902 359.6545
123.9009 355.4843 9.947573 359.4235
123.9333 355.3579 10.50257 359.0505
123.9656 355.2606 11.03702 358.6638
123.9957 355.3087 11.35406 358.4348
124.0283 355.3788 11.67123 358.0611
124.0573 355.6503 11.8673 357.73
124.0866 356.1666 11.90185 357.4676
124.1167 356.1168 11.91332 357.3241
124.1469 355.7587 11.9305 357.0898
124.1769 355.7568 11.8515 357.0338
124.2065 355.8312 11.72409 357.0649
124.235 355.918 11.62973 357.1138
124.2659 356.1498 11.46797 357.1921
124.297 356.4816 11.27649 357.2281
124.3269 356.2871 11.16826 357.1441
124.3574 356.3533 10.9551 357.1825
124.387 356.762 10.66814 357.2266
124.4204 356.8157 10.508 357.3001
124.4537 356.4167 10.36473 357.2905
124.4868 356.2357 10.3792 357.2016
124.519 356.1553 10.59142 357.2081
124.5489 355.749 10.92511 357.1098
124.5822 355.9539 11.13478 357.1199
124.6155 355.9185 11.4329 357.1541
124.6489 355.8755 11.591 357.1134
124.6814 356.0646 11.58411 357.216
124.7117 356.3219 11.58779 357.2635
124.7428 355.8973 11.50295 357.386
124.7724 355.7465 11.34862 357.3721
124.8057 355.6179 11.19455 357.2997
124.8391 356.1785 10.89206 357.3674
124.8688 355.8254 10.51239 357.4665
124.8987 355.4258 10.20189 357.3733
124.9289 355.9981 9.966763 357.2675
124.9622 356.1545 9.747477 357.3078
124.9913 355.9455 9.326836 357.3801
125.0246 356.3728 9.127895 357.42
125.0546 355.6342 8.880172 357.5473
125.0879 355.6544 8.571842 357.5399
125.1191 355.702 8.262884 357.5734
125.1492 355.1982 8.087705 357.5499
125.1788 355.1811 7.826169 357.657
125.2116 355.6427 7.804252 357.6831
125.2434 355.3636 7.763941 357.6776
125.2763 355.2999 7.76608 357.7307
125.3063 355.671 7.956495 357.7392
125.3397 355.6752 8.293965 357.8188
125.373 355.5567 8.729362 357.846
125.4063 355.4854 9.101756 357.8099
125.436 355.6176 9.565896 357.7733
125.4658 355.6405 9.811507 357.7729
125.4991 355.4416 10.02769 357.7633
125.5288 355.4725 10.24825 357.6754
125.5617 355.4708 10.46067 357.6147
125.5925 355.5326 10.52926 357.7169
125.6249 355.5936 10.55507 357.7831
125.658 355.5725 10.51391 357.8172
125.6885 355.4654 10.44152 357.8598
125.7218 355.3269 10.3519 357.845
125.7505 355.179 10.40648 357.7252
125.78 355.1085 10.59489 357.7308
125.8113 355.0701 10.77821 357.7624
125.8401 354.999 11.08005 357.6444
125.8735 355.0312 11.36243 357.623
125.9066 354.9808 11.68959 357.6296
125.9373 355.0919 11.93537 357.4953
125.9697 355.0694 12.03634 357.5742
125.9986 354.9792 11.99129 357.5622
126.0319 354.8935 11.88434 357.4698
126.0636 354.9091 11.62119 357.4442
126.0969 354.8223 11.30002 357.5247
126.1303 354.7289 11.03272 357.479
126.1606 354.7781 10.84371 357.3943
126.1901 354.8225 10.64571 357.4385
126.219 354.6432 10.51106 357.4578
126.2495 354.5876 10.38941 357.438
126.2801 354.6433 10.26162 357.3905
126.3091 354.5829 10.04249 357.3143
126.3396 354.5155 9.760927 357.2122
126.3698 354.4681 9.447254 357.1466
126.3981 354.5529 9.134027 357.1574
126.4315 354.5986 8.721305 357.1429
126.4613 354.5479 8.23067 357.236
126.4925 354.4853 7.874011 357.3725
126.5258 354.5303 7.379113 357.5123
126.5583 354.6519 6.797348 357.7578
126.5896 354.6445 6.310301 357.9431
126.6201 354.6053 5.91468 358.1487
126.6532 354.602 5.740717 358.2981
126.6865 354.6067 5.84194 358.4011
126.7199 354.5681 6.164742 358.3891
126.7532 354.4094 6.573843 358.3604
126.7817 354.504 7.032071 358.1514
126.8146 354.4495 7.296231 358.1073
126.8447 354.4425 7.578928 358.1003
126.8745 354.4997 7.818664 358.0595
126.9055 354.4634 7.977519 358.0753
126.9349 354.4864 8.039221 358.1484
126.9678 354.4694 8.014805 358.1815
126.9973 354.4059 7.97268 358.26
127.0258 354.3162 7.927896 358.2744
127.0552 354.2484 7.930085 358.306
127.0852 354.3025 7.917337 358.3835
127.1183 354.3889 7.945926 358.3559
127.1517 354.3354 8.04958 358.2951
127.1843 354.3969 8.160766 358.2529
127.2174 354.397 8.310236 358.2111
127.2461 354.2706 8.51054 358.1682
127.2762 354.2315 8.645205 358.1852
127.3096 354.3087 8.876158 358.2009
127.3412 354.1989 9.06357 358.1826
127.3699 354.188 9.131733 358.251
127.4013 354.211 9.222792 358.1678
127.4314 354.1615 9.249649 358.0693
127.4634 354.0755 9.154072 358.1781
127.4933 354.0911 9.065906 358.1284
127.5238 354.0907 8.890555 358.1449
127.5541 354.0994 8.702379 358.1357
127.5845 354.0933 8.594967 358.1192
127.6168 354.0736 8.435023 358.0883
127.6462 354.155 8.173494 357.9323
127.6796 354.1243 7.878557 357.9237
127.7084 354.1749 7.621623 357.9722
127.7376 354.279 7.29875 357.9392
127.7689 354.3222 7.063304 357.9438
127.8005 354.4114 6.582832 358.0087
127.8301 354.4978 6.083665 357.9864
127.8616 354.5764 5.459284 357.9644
127.8922 354.6552 4.979205 358.0506
127.9228 354.7468 4.142989 358.1414
127.9561 354.7953 3.124731 358.1131
127.9862 354.9256 2.05238 358.0559
128.0163 354.9735 1.137949 358.0103
128.0475 354.947 0.2335059 357.9982
128.0771 354.9021 359.5825 357.9715
128.11 354.9451 358.7993 357.9428
128.1434 354.9953 358.1189 357.9777
128.1765 355.0995 357.5015 357.9919
128.2088 355.2682 356.9411 358.0592
128.2387 355.3787 356.3723 358.092
128.2683 355.515 355.8924 358.1742
128.3012 355.5303 355.5461 358.2604
128.3322 355.5015 355.1578 358.3518
128.3611 355.3789 355.0021 358.4313
128.3931 355.2322 355.0305 358.5767
128.4264 355.1608 355.3185 358.7121
128.4555 355.038 355.9586 358.722
128.4873 355.0085 356.7175 358.6326
128.5175 354.8884 357.3287 358.6493
128.5509 354.7109 358.2303 358.6884
128.5842 354.6105 359.1672 358.7502
128.6148 354.4974 0.2526764 358.6865
128.6481 354.3618 1.237848 358.707
128.6777 354.3285 2.637994 358.8827
128.7088 354.1711 3.363427 358.8719
128.7419 353.8735 4.391372 358.8239
128.7726 353.6597 5.332858 358.8926
128.806 353.4549 6.193791 359.0306
128.8343 353.2707 7.013879 359.0953
128.8632 353.0635 7.71802 359.1535
128.8945 352.9281 8.153275 359.1681
128.9244 352.7 8.79911 359.1494
128.9546 352.5052 9.38289 359.0752
128.9841 352.3953 9.844085 359.0285
129.0175 352.3388 10.69233 358.8672
129.0465 352.2605 11.6839 358.8079
129.0766 352.2389 12.57066 358.8791
129.1055 352.4756 13.885 358.8539
129.1363 352.584 14.69334 358.7717
129.1671 352.8307 15.85345 358.7693
129.1995 353.3094 16.95344 358.7081
129.2306 353.8781 17.91337 358.4632
129.264 354.3988 18.57129 358.4067
129.2955 354.8172 19.05408 358.3175
129.3289 354.8492 19.40412 358.2621
129.3622 354.6633 20.15871 358.3456
129.3927 354.6603 20.96833 358.4467
129.4215 354.7653 21.79807 358.4438
129.4548 354.7544 22.72814 358.506
129.4882 354.8446 23.86143 358.556
129.5215 354.8663 24.97917 358.5658
129.5535 354.8283 26.21372 358.5814
129.5868 354.9163 27.37205 358.5847
129.6166 354.7101 28.43911 358.5573
129.6463 354.5032 29.63309 358.4521
129.6789 354.4899 30.44078 358.4021
129.7122 354.2174 31.55392 358.5168
129.7456 354.0324 33.05445 358.6729
129.7772 353.8087 34.96284 358.7193
129.8065 353.5798 36.85866 358.9125
129.8383 353.683 37.82538 358.882
129.8666 353.7871 39.15442 358.7775
129.8971 353.8849 40.81947 358.7351
129.9304 354.2248 41.90624 358.594
129.9588 354.4358 43.34676 358.2573
129.989 354.4591 44.6384 357.8464
130.0223 354.3718 45.7053 357.5822
130.0511 354.1347 46.68895 357.4215
130.0803 354.2207 47.49564 357.2883
130.1112 354.3159 48.134 357.1056
130.1434 354.317 48.39196 356.9459
130.1753 354.4657 48.1918 356.6753
130.2071 354.7637 47.47833 356.3358
130.2354 354.7899 46.45897 356.111
130.2688 354.7283 44.84265 355.9304
130.3021 354.7952 42.97229 355.672
130.3311 355.0866 40.72919 355.2524
130.3627 355.267 38.93335 354.8598
130.3961 355.2908 37.8166 354.5813
130.4242 355.1454 37.19148 354.3724
130.4565 355.0381 36.98912 354.3369
130.4898 355.0181 36.78626 354.4184
130.5231 355.0188 36.42064 354.4788
130.5526 355.1245 35.51484 354.8874
130.5844 355.2409 34.4818 355.1351
130.6159 355.6657 32.28283 355.134
130.6453 355.8656 29.861 354.9932
130.6747 355.7951 27.3477 354.7469
130.707 355.9927 25.6393 354.5415
130.7404 356.2044 22.92892 354.2988
130.7697 356.1086 20.53636 354.0275
130.803 356.3253 18.43827 353.7507
130.8352 356.3374 16.40886 353.8703
130.864 356.5606 14.61727 354.1454
130.8973 356.9392 12.85479 354.3623
130.9288 357.2337 11.32429 354.6031
130.9589 357.3904 10.3146 354.8643
130.9897 357.5698 8.936517 355.1747
131.0193 357.5987 7.423806 355.3549
131.049 357.6983 6.506196 355.3824
131.0823 357.84 5.231452 355.4412
131.1122 357.8915 4.189712 355.4951
131.1444 357.8939 3.393628 355.4999
131.1762 357.844 2.738277 355.6662
131.2068 357.7726 2.169797 355.8856
131.2402 357.5736 1.936564 356.0405
131.2686 357.0496 1.851876 356.326
131.2998 356.7046 2.016937 356.659
131.3331 356.4081 2.556903 356.8673
131.3644 356.1632 3.293938 356.9244
131.397 355.9515 4.100223 356.9299
131.4272 355.7199 5.088083 356.8309
131.4606 355.6271 5.842579 356.7643
131.4906 355.5853 7.102658 356.738
131.5239 355.5672 7.765931 356.6527
131.5566 355.4767 8.994416 356.6054
131.59 355.2757 9.897203 356.7045
131.6217 355.1259 10.79503 356.7962
131.6511 354.9779 11.73479 356.9504
131.6807 354.7617 12.41259 357.0752
131.7125 354.6563 13.38965 357.1539
131.7427 354.6285 14.24625 357.2005
131.7757 354.6148 14.99997 357.2437
131.8071 354.5615 15.67008 357.2852
131.8395 354.5624 16.00002 357.2917
131.8704 354.7425 16.27931 357.2546
131.9006 354.9532 16.32052 357.1717
131.9301 355.0705 16.14471 357.0164
131.9603 355.1847 15.90799 356.8975
131.9897 355.2791 15.54517 356.7888
132.0205 355.1846 15.20424 356.6503
132.05 355.1364 15.10254 356.5125
132.0796 355.0705 15.12438 356.4716
132.1082 354.9845 15.23086 356.3891
132.1411 355.0035 15.44089 356.2742
132.1744 354.9495 15.57754 356.2645
132.2062 354.8536 15.66235 356.2193
132.2395 354.7737 15.72032 356.1047
132.2695 354.6237 15.68001 356.0506
132.3009 354.6794 15.68216 355.9693
132.3312 354.5712 15.67778 355.9058
132.3609 354.5107 15.58891 355.9103
132.3917 354.4659 15.47223 355.9345
132.4221 354.4984 15.12546 355.9529
132.4554 354.4408 14.66336 355.8386
132.4888 354.2257 14.24119 355.8672
132.5211 354.1336 13.7398 355.9256
132.5544 354.0839 13.25469 355.9772
132.5848 353.9994 12.64906 356.1141
132.6181 354.0161 12.41023 356.1557
132.6485 353.9823 12.09982 356.1204
132.6772 354.027 11.85919 356.1794
132.7077 354.0308 11.76637 356.1853
132.7391 354.0965 11.78427 356.1633
132.7684 354.1302 11.7798 356.2261
132.7997 354.2045 11.762 356.3468
132.833 354.3486 11.72833 356.3935
132.8618 354.5033 11.53406 356.5051
132.8927 354.74 11.23475 356.5702
132.922 354.9715 10.93707 356.5688
132.9529 355.3466 10.33252 356.7886
132.9846 355.8496 9.571503 357.0696
133.0149 356.5179 8.65262 357.2489
133.0442 357.0116 7.880531 357.3938
133.0739 357.5762 6.769536 357.5378
133.1041 358.1424 5.506444 357.7534
133.1336 358.6343 4.570903 357.9269
133.1649 359.4222 3.277268 358.1146
133.1965 0.3406164 1.768643 358.4145
133.2271 1.470852 0.05678165 358.5261
133.2566 2.269464 358.725 358.4452
133.2884 3.090982 357.3857 358.3417
133.3185 3.608783 356.1288 358.2057
133.3515 3.844023 354.9624 358.0709
133.3809 4.282003 354.1736 358.2205
133.4139 4.625547 353.7392 358.2757
133.447 5.291648 353.2458 358.335
133.4774 5.942447 352.9482 358.4885
133.5061 6.192225 352.739 358.6017
133.5394 6.425584 352.6706 358.7707
133.5728 6.815489 352.7526 358.9417
133.6024 7.185035 352.8575 359.1157
133.6358 7.548394 352.8757 359.3153
133.665 7.855747 352.9212 359.4922
133.6928 8.010343 352.941 359.6157
133.7235 8.160039 352.927 359.7072
133.754 8.492595 352.8039 359.7052
133.7825 8.674651 352.6862 359.6712
133.8128 8.750713 352.63 359.7405
133.8449 8.793015 352.4289 359.7368
133.8783 8.888304 352.2499 359.7568
133.9116 9.000995 351.9448 359.7963
133.9424 9.050948 351.5747 359.6812
133.9757 9.076534 351.2609 359.5054
134.006 9.211381 350.9935 359.4405
134.0376 9.313201 350.6976 359.3536
134.0692 9.662001 350.4568 359.3687
134.1025 10.05843 350.0529 359.401
134.1345 10.65191 349.4944 359.5967
134.1678 11.38067 348.7022 359.7032
134.198 12.16456 347.8184 359.6184
134.2274 13.306 346.7636 359.6973
134.2562 14.31416 346.0564 359.9136
134.2866 15.89141 344.9551 0.275072
134.3161 17.73523 343.7116 0.5040425
134.3483 19.05539 342.8574 0.4310674
134.3816 20.80514 341.6048 0.03184822
134.4128 22.62901 339.9877 359.6534
134.4439 23.31858 339.1434 359.2809
134.4737 24.38424 337.988 358.9059
134.5071 25.33646 336.8537 358.4342
134.5365 26.2843 335.6424 357.9924
134.5679 27.13862 334.4468 357.5528
134.6013 27.71567 333.3487 356.8063
134.6304 28.55761 332.4733 356.5421
134.6621 28.87662 331.8671 356.3657
134.6939 29.00724 331.0401 356.1554
134.7246 29.38741 330.1997 355.9953
134.7579 29.6429 329.4357 355.7383
134.7912 29.77467 328.6096 355.7583
134.8206 30.06337 327.6813 355.5156
134.8529 29.94303 326.8719 355.3958
134.8821 30.05133 325.871 355.3165
134.9113 30.01267 325.0387 355.1619
134.9417 29.80583 323.4981 354.9869
134.9749 29.39547 320.4873 354.1898
135.0051 28.84982 317.368 353.0989
135.0359 28.31309 314.5392 352.3592
135.0689 27.97233 312.5802 351.8949
135.0975 27.37998 309.5268 351.4502
135.1308 26.63096 306.0536 351.0007
135.1601 25.83517 302.8072 350.4384
135.1891 25.2436 299.6968 350.1604
135.2188 24.76222 297.7514 349.8764
135.2521 23.90121 295.4299 349.8155
135.2854 23.09851 293.3397 350.0235
135.3188 22.42439 291.7143 350.5622
135.3501 21.26278 289.8596 351.4035
135.3794 20.30143 288.059 351.4635
135.4118 19.23924 286.2315 351.3554
135.443 19.0568 284.9594 351.5413
135.4733 18.57575 284.2898 351.9756
135.5066 17.83005 283.0913 352.5197
135.5373 17.58785 281.7872 352.6057
135.5707 16.98714 280.2887 352.7038
135.601 16.58111 278.8223 353.0019
135.6332 15.77318 276.8047 353.2533
135.6665 15.34804 274.7196 353.1047
135.696 14.72073 272.3524 353.1165
135.7267 14.40499 270.4215 353.0892
135.7591 13.9758 268.0264 353.2306
135.789 13.11465 264.8126 352.9356
135.8194 13.20403 261.971 352.5504
135.8496 13.58674 259.8519 352.7977
135.8798 13.4584 258.4642 352.956
135.9096 13.35565 256.428 352.8339
135.9423 12.87138 254.3613 352.8364
135.9731 12.51052 252.3624 352.7873
136.002 12.30718 250.9323 352.826
136.0353 11.52715 248.9731 352.7593
136.0661 11.13368 247.4401 352.5153
136.0977 10.33882 245.9941 352.4405
136.1281 9.689331 244.3636 352.239
136.1578 8.949615 243.1259 352.1307
136.187 7.904495 240.7635 352.0409
136.2154 7.405772 238.6834 351.7414
136.2479 7.152993 237.3478 351.8373
136.2801 6.7749 235.4762 352.1021
136.3095 6.25698 233.5211 352.874
136.3406 6.411277 231.78 353.455
136.3739 6.23127 230.8499 353.929
136.4073 5.017144 228.9161 354.5515
136.4399 4.711688 227.7426 354.6238
136.4733 4.034847 225.948 355.0124
136.5038 3.401597 224.2181 355.0423
136.5339 3.239194 223.2033 354.8849
136.5624 2.785251 222.0071 354.6406
136.5937 3.495979 221.1752 354.4024
136.627 4.57054 220.2965 354.3687
136.6584 5.139261 218.3032 354.9102
136.6884 5.404216 216.6734 355.2718
136.7182 5.812796 214.3724 355.5741
136.7474 6.347522 212.3615 355.1833
136.7779 6.020396 210.9578 354.9554
136.8112 4.759567 208.9011 355.1046
136.8412 2.892285 206.5561 354.4913
136.8693 2.531953 204.5184 353.7701
136.8997 1.938528 202.9037 353.4863
136.9308 1.292612 202.2543 353.2724
136.962 0.3776059 201.0541 352.8543
136.9953 359.6323 199.8873 352.7251
137.0284 359.1183 198.2743 353.1484
137.059 358.1705 196.8546 353.3473
137.0882 357.2445 195.2668 353.5792
137.1175 356.7998 193.8838 353.5658
137.1499 356.3218 192.1378 353.6414
137.1797 355.9906 189.78 354.203
137.2121 355.9197 188.1797 354.0991
137.2427 356.3596 186.3512 353.9724
137.276 356.416 184.7303 354.2008
137.307 356.2894 183.8239 354.7938
137.3368 355.8127 183.3848 355.3287
137.3685 355.7816 182.7021 356.0667
137.4003 355.7347 181.5342 356.3503
137.4337 355.0692 180.5227 356.3479
137.4634 354.7476 179.6348 356.5869
137.4926 354.2795 179.1927 356.5562
137.5259 353.9138 179.3196 356.3983
137.5592 353.8181 180.912 356.8785
137.5886 352.8722 183.0585 356.9984
137.6175 352.5357 185.4768 357.0214
137.6472 352.1516 190.1851 357.524
137.6773 351.1901 194.8598 358.4903
137.71 350.1068 201.9646 359.2114
137.7433 349.3944 211.2314 0.4923271
137.7765 349.0764 222.2121 1.307089
137.8056 347.9984 236.7021 2.444925
137.8365 348.7939 252.8454 5.11308
137.8699 349.2766 266.7375 5.888267
137.9012 347.4413 279.0547 4.03032
137.9345 347.3112 286.5979 3.651088
137.9655 346.1217 296.1457 3.317628
137.9946 344.9395 302.7686 3.391124
138.0266 345.3803 306.438 3.688999
138.0565 345.9007 311.5346 2.676201
138.0866 346.7607 316.4612 0.5532759
138.116 347.2065 319.7301 359.4855
138.149 347.2594 323.7224 358.9633
138.179 347.5802 327.9787 358.1397
138.208 347.536 332.4405 357.6767
138.2375 347.4406 335.6462 357.3771
138.2688 347.508 340.5012 356.981
138.3016 347.0554 345.5965 357.0439
138.3307 346.6161 350.3493 357.351
138.364 346.2502 353.6923 357.4816
138.3974 346.1888 359.7464 357.8057
138.4302 346.2537 4.014744 357.8055
138.46 346.2701 8.386607 357.6793
138.4918 346.1138 12.58902 357.2808
138.5234 345.6806 16.49019 356.5124
138.5534 345.6507 19.28445 355.9976
138.5848 345.2395 22.78617 355.7136
138.6147 345.0745 26.2566 355.3642
138.6436 345.1321 30.22989 355.0264
138.6734 345.062 33.15956 354.6556
138.7032 345.242 38.40928 354.5106
138.7365 345.4116 43.71232 354.692
138.7698 345.6533 48.81383 354.6462
138.8031 346.0697 54.26402 354.2393
138.8359 346.8252 59.39055 353.8849
138.8645 347.4701 64.27875 353.6742
138.8935 347.701 67.14197 353.5503
138.9226 347.9785 71.69742 353.4528
138.956 348.1064 76.50275 352.9388
138.9893 347.4098 81.21426 352.4807
139.0181 347.2648 84.85821 352.4445
139.0501 347.2739 86.99661 352.2201
139.0828 347.5031 89.25761 351.901
139.111 347.4508 90.73609 351.6108
139.1403 347.4136 91.48286 351.213
139.1726 347.4149 91.75823 351.0422
139.2025 347.2511 91.87007 350.8588
139.2325 347.3958 91.02763 350.7505
139.2643 347.496 89.73573 350.6902
139.2934 347.1038 88.41209 350.878
139.324 347.1098 86.50923 351.0284
139.355 346.9454 84.04851 351.5147
139.3847 346.9681 81.75363 352.3029
139.416 347.2094 79.96805 352.704
139.4476 346.9521 77.66429 353.2392
139.4773 347.0162 75.73864 353.6583
139.5107 347.4293 73.48505 354.258
139.5406 347.5321 71.34361 354.6929
139.5722 347.7288 69.67551 354.814
139.6056 348.5843 66.89014 354.8214
139.6368 349.6062 63.62836 353.4612
139.6677 350.4661 61.79114 352.5103
139.6981 351.3638 58.65002 351.8811
139.7295 352.5738 54.5201 351.645
139.7605 354.1548 49.2643 351.0772
139.7936 354.7871 43.92522 351.0278
139.8269 355.1992 40.43284 350.7007
139.8552 355.5204 36.2438 350.3113
139.8865 355.5028 33.337 350.1402
139.9198 355.8262 30.82999 350.2542
139.9483 356.0028 29.20983 349.9524
139.9794 355.7024 28.19861 350.3297
140.0108 355.6411 26.72648 350.7085
140.042 355.5947 25.21159 350.8281
140.0712 355.7042 23.47961 351.4431
140.1006 355.9858 21.70934 351.8774
140.134 355.7802 20.42519 352.3466
140.1639 355.8302 17.75782 353.346
140.1931 356.2401 16.38163 353.5
140.2254 356.3652 14.67991 353.8142
140.2581 356.2238 12.90387 354.5783
140.2877 356.3173 11.01837 355.1949
140.3171 356.0427 9.852464 355.6173
140.3504 355.1822 8.908473 356.2627
140.3806 354.4707 7.819902 356.6873
140.4101 353.8294 6.954941 356.9962
140.4433 353.338 6.289896 357.2431
140.4733 352.9692 5.079458 357.6665
140.5037 352.3803 4.154901 357.6701
140.537 351.6893 3.778064 357.2962
140.5663 351.2894 3.652218 357.1289
140.5996 350.98 3.683732 357.2553
140.6298 350.7047 3.776509 357.4175
140.6629 350.6334 3.940586 357.6256
140.6914 350.247 4.090394 357.8795
140.7247 349.9415 4.104281 358.054
140.7565 349.4032 4.321226 358.2051
140.7874 349.1131 4.508841 358.3047
140.819 348.8991 4.669681 358.3104
140.8483 348.5894 5.141483 358.1779
140.8805 348.4313 5.678196 358.1719
140.9138 348.2908 5.964165 358.0935
140.9437 348.5175 6.366232 358.0027
140.9731 348.194 6.777119 357.9538
141.0064 348.6021 7.227264 357.7038
141.0378 349.5758 7.62775 357.4214
141.0677 349.9316 8.010969 357.1761
141.0991 350.3271 8.476427 356.8152
141.1324 350.8726 8.79525 356.4976
141.1653 350.5229 9.013095 356.2636
141.1951 350.3923 9.013399 356.2263
141.225 350.1104 8.672024 356.1826
141.255 349.8651 8.413759 356.0565
141.2846 349.5558 8.177222 355.8639
141.3139 349.5107 7.938091 355.8321
141.3454 349.581 7.846141 355.7151
141.3787 349.715 7.949931 355.6291
141.4121 349.8854 8.100354 355.7253
141.4407 349.7761 8.170288 355.943
141.4716 349.7098 8.267441 356.0102
141.505 349.7042 8.278134 356.0203
141.5383 349.5633 8.518987 356.2208
141.5703 349.7757 8.802088 356.2145
141.6037 349.9325 9.023649 356.2532
141.6343 350.3218 9.128284 356.3856
141.6646 350.7931 9.248907 356.5209
141.6966 350.9218 9.297469 356.6226
141.7299 351.2509 9.221217 356.7978
141.7615 351.5836 9.09058 356.8705
141.7923 351.6792 9.071412 356.8421
141.8233 351.9714 9.027379 356.8412
141.8542 352.3846 8.921476 356.7606
141.8876 352.584 8.799503 356.8262
141.9166 352.9593 8.57277 356.8114
141.9466 353.3365 8.352778 356.8212
141.9769 353.9105 7.993054 357.0073
142.0066 354.3622 7.492573 357.228
142.0363 354.6681 7.06255 357.3625
142.0691 355.128 6.46211 357.5511
142.0988 355.4031 5.760715 357.7441
142.1321 355.288 5.186358 357.7842
142.1621 354.8237 4.778125 357.912
142.1944 354.3878 4.674203 358.0637
142.2253 354.0146 4.78557 358.1081
142.255 353.8979 5.2136 358.0894
142.2854 353.6334 6.207812 357.9706
142.3181 353.3121 7.406016 357.7342
142.3515 353.0385 8.593393 357.5632
142.3825 352.7681 9.87081 357.3844
142.4143 352.4819 10.78163 357.1973
142.4476 352.1781 11.84435 357.0074
142.4809 351.712 12.72697 357.0118
142.5121 351.2301 13.35837 356.7048
142.5431 350.955 13.70806 356.4957
142.5757 350.8345 13.73028 356.4727
142.609 350.4454 13.75296 356.3454
142.6391 350.1176 13.569 356.0795
142.6725 350.0874 13.31218 355.9696
142.7032 349.764 13.13361 355.8958
142.7366 349.5081 13.01936 355.8037
142.7699 349.3094 12.90773 355.8376
142.8032 349.1743 12.97978 355.8516
142.8354 349.0612 13.02917 355.8471
142.8651 349.1096 12.94993 355.9023
142.8952 349.2391 12.86151 355.9005
142.9277 349.153 12.86043 355.8248
142.9611 349.2147 12.82225 355.7316
142.9918 349.5089 12.76179 355.6784
143.0235 349.4064 12.70465 355.6799
143.0556 349.4716 12.48347 355.6976
143.0889 349.7602 12.30167 355.6272
143.1211 349.5002 11.92508 355.7428
143.1514 349.6648 11.42156 355.8648
143.1817 350.1849 10.63931 356.0269
143.2151 350.575 9.706902 356.0485
143.2484 350.7893 8.645248 356.0986
143.2776 350.4825 7.759282 356.1498
143.3106 350.4316 7.201853 356.2403
143.3439 350.6869 6.31499 356.3965
143.3772 350.8307 5.471073 356.3676
143.4106 351.076 4.376911 356.262
143.4439 350.8555 3.686404 356.2741
143.4772 351.6074 1.58014 356.6524
143.5106 351.8248 1.560414 356.5065
143.5404 351.9543 1.114442 356.6768
143.5737 352.1072 0.9854151 356.6063
143.607 352.1455 0.8835225 356.8393
143.6371 352.5121 0.9378969 356.8228
143.6684 352.4477 0.8844974 356.9247
143.701 352.2957 0.9200698 356.9365
143.7335 352.2681 0.8671637 356.8598
143.7668 352.2451 0.8581019 356.896
143.7984 352.6131 0.9861952 356.7801
143.8285 352.778 0.9818674 356.7968
143.8593 353.087 0.9674092 356.8362
143.8911 353.7303 0.9931587 356.8251
143.9245 353.9299 0.9639774 356.8128
143.9554 354.0839 1.000597 356.6172
143.9856 354.4584 1.108535 356.5789
144.0181 354.595 1.169345 356.7329
144.0501 354.8877 1.229839 356.8694
144.0834 355.1282 1.26995 357.0346
144.1134 354.9986 1.198586 357.1539
144.1441 354.8832 1.143114 357.1021
144.1758 354.8441 1.131123 357.0329
144.2064 354.7401 1.073324 357.045
144.2397 354.7435 1.061926 357.0329
144.2724 354.6815 0.9855132 356.8946
144.3043 354.3802 0.8558393 356.8209
144.3376 354.2226 0.8420873 356.7973
144.3684 354.0347 0.9228713 356.7758
144.4018 353.8234 1.016619 356.7828
144.4316 353.6476 1.1534 356.8506
144.4609 353.1327 1.233454 357.0162
144.4907 352.9083 1.30748 356.9851
144.524 352.7244 1.448282 357.005
144.5574 352.7209 1.518508 357.1883
144.5892 352.7509 1.588709 357.2274
144.6192 352.8397 1.695979 357.2975
144.6526 352.9859 1.756814 357.3262
144.6837 353.183 1.839246 357.2167
144.717 353.2145 1.961574 357.2266
144.7501 353.3165 2.023592 357.231
144.7824 353.243 2.190125 357.1567
144.8157 353.1306 2.326626 357.1675
144.8446 353.2292 2.547231 357.1042
144.878 353.2661 2.698929 357.0363
144.9077 353.3104 2.985556 356.9543
144.9379 353.493 3.335734 356.8622
144.9711 353.7463 3.661006 356.8047
145.002 353.9348 4.032286 356.8648
145.0353 354.3329 4.480484 356.6792
145.0664 354.7166 4.94945 356.5762
145.0976 355.4985 5.31774 356.7977
145.1283 356.4063 5.485277 356.9937
145.1575 357.172 5.491225 357.2264
145.1909 357.6603 5.437602 357.2989
145.2242 358.2296 5.123999 357.4876
145.2568 358.149 4.862538 357.4324
145.2896 358.4775 4.521205 357.6221
145.3191 358.8582 4.137722 357.8834
145.3524 359.2862 3.676296 358.1166
145.385 359.882 3.112787 358.3512
145.4166 0.5961943 2.456082 358.3504
145.4491 1.009807 1.903473 358.3093
145.4793 1.557326 1.324447 358.3596
145.5126 1.584566 0.7966502 358.4067
145.5443 1.693688 0.4126078 358.5424
145.5776 2.467086 359.8611 358.7477
145.6105 2.686295 359.5184 358.8752
145.6428 3.340868 359.1116 359.0575
145.6761 4.169111 358.5386 359.1887
145.7094 4.596235 357.8792 359.0386
145.7381 5.280638 357.0706 358.9644
145.7678 5.400296 356.7272 358.9451
145.7981 5.357286 356.2793 358.9689
145.8314 5.667037 356.1069 359.1157
145.8623 5.796378 356.1798 359.4426
145.8951 5.715265 356.3954 359.6973
145.9284 5.969607 356.7394 359.8551
145.9604 5.864432 357.1144 359.8907
145.9937 5.893499 357.302 359.9564
146.0229 6.164471 357.502 359.8883
146.0525 6.225768 357.7415 359.7028
146.0821 6.331645 357.9711 359.6107
146.115 6.776443 358.2777 359.3823
146.1483 6.455119 358.5992 359.3681
146.1816 6.271955 358.8604 359.3182
146.2124 6.523834 359.1621 359.2182
146.244 6.412945 359.3747 359.1856
146.2773 6.220095 359.5191 358.974
146.3107 6.155939 359.7587 358.7032
146.342 5.909103 0.008461742 358.5424
146.3739 5.642497 0.3316813 358.3324
146.4068 5.544996 0.797914 358.1161
146.4401 5.673895 1.331927 357.9249
146.4734 5.795911 1.876883 357.8281
146.5068 5.832538 2.328924 357.7229
146.5361 5.814862 2.692632 357.6681
146.5694 5.469532 2.781503 357.7342
146.6027 5.113696 2.909227 357.5812
146.6361 5.343019 3.110614 357.0875
146.6675 5.36558 3.199578 357.0163
146.6973 5.783796 3.274425 357.0414
146.7302 5.954468 3.452463 357.1385
146.7633 5.809197 3.512767 357.3366
146.7966 5.91763 3.493083 357.4033
146.8299 5.973028 3.392493 357.41
146.8603 5.887742 3.302772 357.1993
146.8937 5.918202 3.315375 357.1463
146.927 5.962127 3.418308 357.1838
146.9603 5.977297 3.58444 357.273
146.9931 6.302177 3.667866 357.3635
147.0264 6.306255 3.677596 357.3879
147.0596 6.364439 3.709022 357.2954
147.089 6.327279 3.691354 357.3517
147.1223 5.991465 3.712798 357.3657
147.1521 5.709502 3.663445 357.433
147.1814 5.933566 3.531383 357.3293
147.2111 5.90339 3.419651 357.4086
147.2427 6.097753 3.352569 357.2885
147.276 6.451169 3.395664 357.1989
147.3067 6.445585 3.410887 357.1643
147.3367 6.609257 3.511667 357.1503
147.3681 6.560584 3.656252 357.2581
147.4015 6.229147 3.758875 357.3034
147.4348 6.052053 3.718744 357.3454
147.466 5.761923 3.61315 357.3721
147.4985 5.6856 3.447618 357.2964
147.5289 5.984294 3.30638 357.2235
147.5603 6.08761 3.226508 357.2437
147.5936 6.1064 3.227134 357.2339
147.6244 6.205929 3.376261 357.3207
147.6563 6.137394 3.61362 357.5566
147.686 5.88395 3.792485 357.3761
147.7193 5.67447 3.8671 357.316
147.7527 5.773106 3.86813 357.2528
147.7836 5.559028 3.901982 357.0741
147.8151 5.716634 3.752836 357.006
147.8484 5.750435 3.596055 356.9563
147.881 5.707819 3.365882 356.8932
147.9143 5.341412 3.182198 356.8065
147.9476 4.909847 3.006019 356.7543
147.9776 5.332039 3.112394 356.6436
148.0082 5.563832 3.374313 356.5219
148.0395 5.941033 3.740181 356.5366
148.0728 6.279406 4.035252 356.6571
148.1036 6.532573 4.405363 356.8774
148.1346 5.90293 4.465283 357.0025
148.1679 5.296048 4.463137 357.003
148.2012 5.177562 4.215169 357.0641
148.2346 5.133567 4.012346 356.8296
148.2657 5.483122 3.73581 356.7624
148.299 5.849123 3.551134 356.6741
148.3323 6.210815 3.359404 356.8572
148.3656 6.29023 3.125011 357.2107
148.399 5.987449 3.055712 357.4157
148.4278 5.668039 2.929289 357.5476
148.4602 5.460009 2.726337 357.5844
148.4936 5.572548 2.83143 357.3156
148.5245 5.731279 3.097901 357.3506
148.5578 5.840747 3.435615 357.3385
148.5912 5.872619 3.918573 357.4369
148.619 5.652421 4.370328 357.4932
148.6485 5.753897 4.593323 357.3645
148.6816 5.775947 4.754089 357.2577
148.7149 5.754635 4.749124 357.2765
148.7439 5.851407 4.724743 357.0745
148.7772 5.740119 4.569335 356.988
148.8077 5.56426 4.461169 356.885
148.8382 5.547112 4.414924 356.7886
148.8715 5.492998 4.350487 356.8691
148.9025 5.620329 4.314957 357.0103
148.9358 5.620839 4.196825 357.1169
148.9692 5.598254 3.971481 357.0811
148.9991 5.585011 3.929986 357.1549
149.0324 5.630199 3.971865 357.1278
149.0633 5.589346 4.038451 357.2389
149.0943 5.623665 4.097168 357.3151
149.1252 5.566161 4.172753 357.2923
149.1549 5.506066 4.245041 357.311
149.1882 5.554046 4.258857 357.3199
149.2191 5.545057 4.288095 357.2058
149.25 5.5781 4.229465 357.3036
149.2808 5.677399 4.219194 357.0743
149.3121 5.565556 4.202044 357.1158
149.3454 5.659762 4.20529 357.1416
149.3788 5.538575 4.246701 357.1703
149.4087 5.476954 4.231928 357.229
149.4383 5.402977 4.171315 357.1885
149.468 5.354329 4.078997 357.1591
149.5013 5.262185 4.084916 357.0822
149.531 5.256465 4.099431 357.083
149.5633 5.370284 4.101339 357.1079
149.5967 5.193033 4.117928 357.106
149.6267 5.110304 4.106122 357.1372
149.66 5.074711 4.105023 357.2117
149.6933 4.692394 4.046359 357.3711
149.7255 4.353339 3.81256 357.4166
149.7563 4.25371 3.741491 357.479
149.7883 4.171357 3.51103 357.4486
149.8216 4.372591 3.323947 357.3445
149.8549 4.632591 3.389369 356.9981
149.8865 4.970115 3.443502 357.0017
149.9191 4.809856 3.547409 356.9026
149.9492 4.421731 3.57669 356.9462
149.9825 4.285499 3.500469 356.9229
150.0128 4.294207 3.391723 356.7971
150.0447 4.502903 3.585132 356.5061
150.0752 4.787334 3.940722 356.3932
150.1085 4.928939 4.272891 356.4896
150.1418 5.009961 4.560641 356.5623
150.1752 5.034465 4.65688 356.4972
150.2066 4.52115 4.546076 356.3795
150.2365 4.469769 4.536778 356.2723
150.2694 4.355911 4.475491 356.2789
150.3028 4.041647 4.342251 356.252
150.332 4.151714 4.27101 356.138
150.3618 4.28627 4.310481 356.0385
150.3951 4.538999 4.480976 356.0114
150.4269 4.879043 4.665256 355.9393
150.4602 4.969044 4.73506 356.133
150.493 4.631307 4.656534 356.3022
150.5226 4.444606 4.473879 356.2397
150.556 4.300291 4.252152 356.1429
150.586 4.393496 4.119977 356.0177
150.6193 4.45981 4.135918 356.0641
150.6526 4.57091 4.189116 355.973
150.6856 4.61928 4.274894 356.0789
150.7168 4.87348 4.386459 356.0784
150.7477 4.978776 4.587332 356.1154
150.781 4.903659 4.694446 356.1501
150.8143 4.759514 4.784883 356.1396
150.8477 4.389395 4.726505 356.0662
150.8789 4.421952 4.562972 355.9628
150.9114 4.56101 4.48493 355.9089
150.9447 4.678025 4.44237 355.7942
150.9748 4.85271 4.491979 355.8936
151.0057 5.195051 4.776177 355.8913
151.0386 5.112259 4.988842 356.1264
151.0716 5.098031 5.058347 356.1288
151.1049 5.018043 5.044763 356.0584
151.1383 4.842035 4.955973 355.9413
151.1685 4.641184 4.824794 355.7065
151.1994 4.817534 4.689519 355.7
151.2301 5.089961 4.545196 355.5821
151.2635 4.901899 4.261157 355.5592
151.2968 5.038813 3.997305 355.6158
151.3266 4.880818 3.534633 355.5356
151.36 4.522091 3.479929 355.3556
151.3923 4.846961 3.484126 355.2771
151.4257 5.230733 3.623229 355.1456
151.459 5.454951 3.904409 355.1297
151.4923 5.819676 4.247765 355.2336
151.5257 5.70961 4.46324 355.0946
151.559 5.345509 4.599808 354.9694
151.5923 5.219982 4.723746 354.6781
151.6241 4.976248 4.879491 354.6098
151.6564 4.986095 5.05773 354.7429
151.6897 5.105315 5.089944 354.9038
151.7195 5.141434 4.92978 354.9936
151.7528 5.411172 4.788309 355.0067
151.7836 5.638172 4.454464 355.0104
151.8158 5.550901 4.212224 354.8069
151.8491 5.473157 4.118203 355.0298
151.8783 5.212235 4.168371 355.113
151.9116 5.165163 4.310015 355.223
151.9421 5.494232 4.373494 355.3785
151.9754 5.542857 4.408675 355.3164
152.0052 5.505186 4.292608 355.3654
152.0367 5.430462 4.172972 355.2059
152.07 5.249578 4.171369 355.0431
152.1033 5.188314 4.212932 355.1506
152.133 5.304918 4.294348 355.3075
152.1618 5.375608 4.236688 355.3127
152.195 5.324914 4.117775 355.1184
152.2284 5.314814 4.029959 355.0586
152.2614 5.199344 4.060366 355.0334
152.2915 5.13614 4.217956 354.8416
152.321 5.141425 4.273823 354.7792
152.3543 5.113058 4.342798 354.7209
152.3876 4.954556 4.404192 354.5442
152.4204 4.671097 4.464468 354.3556
152.4503 4.680548 4.635685 354.2252
152.4837 4.658716 4.905662 354.2143
152.5138 4.775158 5.192582 354.2449
152.5472 4.87487 5.317168 354.2709
152.579 5.158606 5.294456 354.2438
152.6119 4.924859 5.235032 353.9571
152.6415 4.819526 5.155851 353.7637
152.6734 4.688479 5.176675 353.7494
152.7067 4.285561 5.309073 353.7059
152.7356 4.240037 5.501313 353.686
152.769 4.451239 5.712477 353.784
152.8023 4.448039 5.907602 353.8109
152.8328 4.626028 6.120008 353.8804
152.8661 0 0 0
