時間[s] x軸周り[deg] y軸周り[deg] z軸周り[deg]
0 0 0 0
0.02 0 0 0
0.05333333 0 0 0
0.08666666 0 0 0
0.12 0 0 0
0.1533333 0 0 0
0.1866667 0 0 0
0.22 0 0 0
0.2533333 0 0 0
0.2866667 0 0 0
0.32 0 0 0
0.3533333 0 0 0
0.3866667 0 0 0
0.42 0 0 0
0.4533333 0 0 0
0.4866666 0 0 0
0.52 0 0 0
0.5533333 0 0 0
0.5866666 0 0 0
0.6199999 0 0 0
0.6533333 0 0 0
0.6866666 0 0 0
0.72 0 0 0
0.7533333 0 0 0
0.7866666 0 0 0
0.8199999 0 0 0
0.8533333 0 0 0
0.8866666 0 0 0
0.92 0 0 0
0.9533333 0 0 0
0.9866666 0 0 0
1.02 0 0 0
1.053333 0 0 0
1.086667 0 0 0
1.12 0 0 0
1.153333 0 0 0
1.186667 0 0 0
1.22 0 0 0
1.253333 0 0 0
1.286667 0 0 0
1.32 0 0 0
1.353333 0 0 0
1.386667 0 0 0
1.42 0 0 0
1.453333 0 0 0
1.486667 0 0 0
1.52 0 0 0
1.553333 0 0 0
1.586667 0 0 0
1.62 0 0 0
1.653333 0 0 0
1.686667 0 0 0
1.72 0 0 0
1.753333 0 0 0
1.786667 0 0 0
1.82 0 0 0
1.853333 0 0 0
1.886667 0 0 0
1.92 0 0 0
1.953333 0 0 0
1.986667 0 0 0
2.02 0 0 0
2.053333 0 0 0
2.086667 0 0 0
2.12 0 0 0
2.153333 0 0 0
2.186666 0 0 0
2.22 0 0 0
2.253333 0 0 0
2.286667 0 0 0
2.32 0 0 0
2.353333 0 0 0
2.386667 0 0 0
2.42 0 0 0
2.453333 0 0 0
2.486666 0 0 0
2.52 0 0 0
2.553333 0 0 0
2.586667 0 0 0
2.62 0 0 0
2.653333 0 0 0
2.686666 0 0 0
2.72 0 0 0
2.753333 0 0 0
2.786666 0 0 0
2.82 0 0 0
2.853333 0 0 0
2.886667 0 0 0
2.92 0 0 0
2.953333 0 0 0
2.986666 0 0 0
3.02 0 0 0
3.053333 0 0 0
3.086667 0 0 0
3.12 0 0 0
3.153333 0 0 0
3.186666 0 0 0
3.22 0 0 0
3.253333 0 0 0
3.286666 0 0 0
3.32 0 0 0
3.353333 0 0 0
3.386667 0 0 0
3.42 0 0 0
3.453333 0 0 0
3.486666 0 0 0
3.52 0 0 0
3.553333 0 0 0
3.586666 0 0 0
3.62 0 0 0
3.653333 0 0 0
3.686666 0 0 0
3.72 0 0 0
3.753333 0 0 0
3.786666 0 0 0
3.82 0 0 0
3.853333 0 0 0
3.886667 0 0 0
3.92 0 0 0
3.953333 0 0 0
3.986666 0 0 0
4.02 0 0 0
4.053333 0 0 0
4.086667 0 0 0
4.12 0 0 0
4.153333 0 0 0
4.186666 0 0 0
4.22 0 0 0
4.253333 0 0 0
4.286666 0 0 0
4.32 0 0 0
4.353333 0 0 0
4.386666 0 0 0
4.42 0 0 0
4.453333 0 0 0
4.486666 0 0 0
4.52 0 0 0
4.553333 0 0 0
4.586667 0 0 0
4.62 0 0 0
4.653333 0 0 0
4.686666 0 0 0
4.72 0 0 0
4.753333 0 0 0
4.786666 0 0 0
4.82 0 0 0
4.853333 0 0 0
4.886666 0 0 0
4.92 0 0 0
4.953333 0 0 0
4.986666 0 0 0
5.02 0 0 0
5.053333 0 0 0
5.086667 0 0 0
5.12 0 0 0
5.153333 0 0 0
5.186666 0 0 0
5.22 0 0 0
5.253333 0 0 0
5.286666 0 0 0
5.32 0 0 0
5.353333 0 0 0
5.386666 0 0 0
5.42 0 0 0
5.453333 0 0 0
5.486666 0 0 0
5.52 0 0 0
5.553333 0 0 0
5.586666 0 0 0
5.62 0 0 0
5.653333 0 0 0
5.686666 0 0 0
5.72 0 0 0
5.753333 0 0 0
5.786666 0 0 0
5.82 0 0 0
5.853333 0 0 0
5.886666 0 0 0
5.92 0 0 0
5.953333 0 0 0
5.986666 0 0 0
6.02 0 0 0
6.053333 0 0 0
6.086666 0 0 0
6.119999 0 0 0
6.153333 0 0 0
6.186666 0 0 0
6.22 0 0 0
6.253333 0 0 0
6.286666 0 0 0
6.32 0 0 0
6.353333 0 0 0
6.386666 0 0 0
6.42 0 0 0
6.453333 0 0 0
6.486666 0 0 0
6.52 0 0 0
6.553333 0 0 0
6.586666 0 0 0
6.619999 0 0 0
6.653333 0 0 0
6.686666 0 0 0
6.72 0 0 0
6.753333 0 0 0
6.786666 0 0 0
6.82 0 0 0
6.853333 0 0 0
6.886666 0 0 0
6.92 0 0 0
6.953333 0 0 0
6.986666 0 0 0
7.02 0 0 0
7.053333 0 0 0
7.086666 0 0 0
7.119999 0 0 0
7.153333 0 0 0
7.186666 0 0 0
7.22 0 0 0
7.253333 0 0 0
7.286666 0 0 0
7.32 0 0 0
7.353333 0 0 0
7.386666 0 0 0
7.42 0 0 0
7.453333 0 0 0
7.486666 0 0 0
7.52 0 0 0
7.553333 0 0 0
7.586666 0 0 0
7.619999 0 0 0
7.651593 0 0 0
7.684927 0 0 0
7.71826 0 0 0
7.749437 0 0 0
7.780468 0 0 0
7.813801 0 0 0
7.845211 0 0 0
7.878504 0 0 0
7.91147 0 0 0
7.944803 0 0 0
7.976997 0 0 0
8.008136 0 0 0
8.038269 0 0 0
8.07135 0 0 0
8.104391 0 0 0
8.135356 0 0 0
8.166703 0 0 0
8.199938 0 0 0
8.231214 0 0 0
8.263461 0 0 0
8.29445 0 0 0
8.327552 0 0 0
8.357718 0 0 0
8.389433 0 0 0
8.422767 0 0 0
8.4561 0 0 0
8.485498 0 0 0
8.518832 0 0 0
8.548212 0 0 0
8.57992 0 0 0
8.613254 0 0 0
8.645167 0 0 0
8.678501 0 0 0
8.709913 0 0 0
8.742769 0 0 0
8.776103 0 0 0
8.807899 0 0 0
8.838243 0 0 0
8.870955 0 0 0
8.904215 0 0 0
8.937548 0 0 0
8.968383 0 0 0
9.000846 0 0 0
9.034179 0 0 0
9.067513 0 0 0
9.099963 0 0 0
9.131174 0 0 0
9.161348 0 0 0
9.194682 0 0 0
9.227402 0 0 0
9.26017 0 0 0
9.290944 0 0 0
9.324278 0 0 0
9.355687 0 0 0
9.387506 0 0 0
9.420839 0 0 0
9.454172 0 0 0
9.48709 0 0 0
9.518157 0 0 0
9.550126 0 0 0
9.58258 0 0 0
9.612471 0 0 0
9.644197 0 0 0
9.677531 0 0 0
9.708579 0 0 0
9.740449 0 0 0
9.773561 0 0 0
9.802671 0 0 0
9.834308 0 0 0
9.8665 0 0 0
9.897187 0 0 0
9.928973 0 0 0
9.962307 0 0 0
9.991158 0 0 0
10.02221 0 0 0
10.05325 0 0 0
10.08217 0 0 0
10.11551 0 0 0
10.14884 0 0 0
10.17924 0 0 0
10.20984 0 0 0
10.24135 0 0 0
10.2703 0 0 0
10.30111 0 0 0
10.33442 0 0 0
10.36515 0 0 0
10.39801 0 0 0
10.42797 0 0 0
10.45948 0 0 0
10.49227 0 0 0
10.52561 0 0 0
10.55818 0 0 0
10.59152 0 0 0
10.62485 0 0 0
10.65797 0 0 0
10.6913 0 0 0
10.72464 0 0 0
10.75797 0 0 0
10.7913 0 0 0
10.82464 0 0 0
10.85402 0 0 0
10.88544 0 0 0
10.91848 0 0 0
10.95181 0 0 0
10.98514 0 0 0
11.01848 0 0 0
11.05119 0 0 0
11.08452 0 0 0
11.11719 0 0 0
11.15053 0 0 0
11.18386 0 0 0
11.21693 0 0 0
11.25026 0 0 0
11.28119 0 0 0
11.31303 0 0 0
11.34569 0 0 0
11.37804 0 0 0
11.40929 0 0 0
11.44263 0 0 0
11.47578 0 0 0
11.50779 0 0 0
11.53941 0 0 0
11.57274 0 0 0
11.6058 0 0 0
11.63725 0 0 0
11.66838 0 0 0
11.69823 0 0 0
11.73049 0 0 0
11.76356 0 0 0
11.79539 0 0 0
11.82704 0 0 0
11.85818 0 0 0
11.89042 0 0 0
11.92375 0 0 0
11.95453 0 0 0
11.98662 0 0 0
12.01658 0 0 0
12.04991 0 0 0
12.0822 0 0 0
12.11553 0 0 0
12.14813 0 0 0
12.1806 0 0 0
12.21387 0 0 0
12.24545 0 0 0
12.27879 0 0 0
12.31212 0 0 0
12.34545 0 0 0
12.37879 0 0 0
12.41212 0 0 0
12.44545 0 0 0
12.47584 0 0 0
12.50589 0 0 0
12.53922 0 0 0
12.57045 0 0 0
12.60141 0 0 0
12.63474 0 0 0
12.66691 0 0 0
12.69825 0 0 0
12.73158 0 0 0
12.76491 0 0 0
12.79753 0 0 0
12.82974 0 0 0
12.86078 0 0 0
12.88987 0 0 0
12.92028 0 0 0
12.95237 0 0 0
12.98571 0 0 0
13.01675 0 0 0
13.05008 0 0 0
13.08057 0 0 0
13.11201 0 0 0
13.14534 0 0 0
13.17741 0 0 0
13.21002 0 0 0
13.24175 0 0 0
13.27251 0 0 0
13.30538 0 0 0
13.33681 0 0 0
13.36726 0 0 0
13.3985 0 0 0
13.43117 0 0 0
13.46065 0 0 0
13.49138 0 0 0
13.52176 0 0 0
13.5526 0 0 0
13.58594 0 0 0
13.61828 0 0 0
13.6515 0 0 0
13.68413 0 0 0
13.71746 0 0 0
13.74948 0 0 0
13.78281 0 0 0
13.81615 0 0 0
13.84814 0 0 0
13.88052 0 0 0
13.91382 0 0 0
13.94716 0 0 0
13.98049 0 0 0
14.01382 0 0 0
14.0469 0 0 0
14.08023 0 0 0
14.11356 0 0 0
14.14602 0 0 0
14.17865 0 0 0
14.21107 0 0 0
14.2421 0 0 0
14.27544 0 0 0
14.30877 0 0 0
14.33943 0 0 0
14.37277 0 0 0
14.4061 0 0 0
14.43943 0 0 0
14.47277 0 0 0
14.5061 0 0 0
14.53623 0 0 0
14.56957 0 0 0
14.6029 0 0 0
14.63623 0 0 0
14.66757 0 0 0
14.70031 0 0 0
14.73365 0 0 0
14.76698 0 0 0
14.80031 0 0 0
14.83216 0 0 0
14.8655 0 0 0
14.89806 0 0 0
14.92855 0 0 0
14.95934 0 0 0
14.99267 0 0 0
15.02492 0 0 0
15.05825 0 0 0
15.09158 0 0 0
15.12221 0 0 0
15.15555 0 0 0
15.18835 0 0 0
15.22169 0 0 0
15.25502 0 0 0
15.28835 0 0 0
15.31938 0 0 0
15.35151 0 0 0
15.38484 0 0 0
15.41488 0 0 0
15.44821 0 0 0
15.47848 0 0 0
15.50906 0 0 0
15.54224 0 0 0
15.57339 0 0 0
15.60504 0 0 0
15.63599 0 0 0
15.66809 0 0 0
15.70057 0 0 0
15.73234 0 0 0
15.76567 0 0 0
15.79572 0 0 0
15.82592 0 0 0
15.85766 0 0 0
15.88754 0 0 0
15.9185 0 0 0
15.95087 0 0 0
15.98069 0 0 0
16.01232 0 0 0
16.04309 0 0 0
16.07643 0 0 0
16.10976 0 0 0
16.14309 0 0 0
16.17643 0 0 0
16.2082 0 0 0
16.24047 0 0 0
16.27058 0 0 0
16.3014 0 0 0
16.33365 0 0 0
16.36699 0 0 0
16.40032 0 0 0
16.43337 0 0 0
16.46587 0 0 0
16.49921 0 0 0
16.53021 0 0 0
16.56118 0 0 0
16.59451 0 0 0
16.62785 0 0 0
16.66118 0 0 0
16.69311 0 0 0
16.72644 0 0 0
16.75978 0 0 0
16.79311 0 0 0
16.82644 0 0 0
16.85749 0 0 0
16.88882 0 0 0
16.92015 0 0 0
16.95057 0 0 0
16.98391 0 0 0
17.01705 0 0 0
17.05038 0 0 0
17.08235 0 0 0
17.11568 0 0 0
17.14902 0 0 0
17.17898 0 0 0
17.21232 0 0 0
17.24271 0 0 0
17.2738 0 0 0
17.30444 0 0 0
17.33728 0 0 0
17.37062 0 0 0
17.40307 0 0 0
17.43641 0 0 0
17.46974 0 0 0
17.50284 0 0 0
17.53596 0 0 0
17.5693 0 0 0
17.60263 0 0 0
17.63596 0 0 0
17.66865 0 0 0
17.70198 0 0 0
17.73403 0 0 0
17.76737 0 0 0
17.79892 0 0 0
17.83022 0 0 0
17.86355 0 0 0
17.89464 0 0 0
17.92642 0 0 0
17.95871 0 0 0
17.99141 0 0 0
18.02198 0 0 0
18.05332 0 0 0
18.08582 0 0 0
18.11817 0 0 0
18.1515 0 0 0
18.18483 0 0 0
18.21615 0 0 0
18.24949 0 0 0
18.28041 0 0 0
18.31375 0 0 0
18.34708 0 0 0
18.37936 0 0 0
18.41222 0 0 0
18.44556 0 0 0
18.47889 0 0 0
18.5106 0 0 0
18.54393 0 0 0
18.57484 0 0 0
18.60568 0 0 0
18.63663 0 0 0
18.66778 0 0 0
18.70111 0 0 0
18.7315 0 0 0
18.76483 0 0 0
18.79416 0 0 0
18.8268 0 0 0
18.85979 0 0 0
18.89292 0 0 0
18.92569 0 0 0
18.95638 0 0 0
18.98755 0 0 0
19.02005 0 0 0
19.05038 0 0 0
19.08371 0 0 0
19.11622 0 0 0
19.14934 0 0 0
19.17897 0 0 0
19.21186 0 0 0
19.24306 0 0 0
19.27487 0 0 0
19.3059 0 0 0
19.33716 0 0 0
19.36853 0 0 0
19.40042 0 0 0
19.43228 0 0 0
19.46527 0 0 0
19.4986 0 0 0
19.53194 0 0 0
19.56519 0 0 0
19.59844 1.899852 14.41414 1.35435
19.63177 2.388144 15.06074 1.383857
19.6651 2.92812 15.17247 1.55458
19.69844 3.161155 15.20792 1.340504
19.73177 3.16382 15.39843 1.28173
19.7651 3.11249 15.42886 1.142347
19.79844 3.13297 15.64905 0.8984603
19.82994 3.932797 15.81751 0.8939949
19.8616 4.769951 16.53953 0.6094485
19.89494 6.061255 17.11474 0.4343251
19.92665 7.173464 17.77737 0.3543526
19.95988 7.913771 18.04405 0.6299179
19.99062 8.284361 18.13741 0.7324869
20.0239 8.769139 17.79119 1.315521
20.05449 10.3544 16.79329 2.179463
20.08707 11.50836 15.95772 2.566701
20.1204 12.37923 14.08723 2.398387
20.1527 12.37454 9.878864 2.049517
20.18367 12.13667 6.073478 1.673555
20.21701 11.9487 3.50806 1.221836
20.24873 11.78819 359.4389 0.6743651
20.2811 11.98964 355.1009 0.1079241
20.31443 12.58165 351.6542 359.4208
20.34578 13.338 348.3697 357.883
20.37825 13.63667 346.922 357.4279
20.41159 13.95213 345.1004 356.7616
20.44245 14.354 345.3745 356.0988
20.4741 14.77997 344.7699 355.8127
20.50743 15.47429 344.1627 355.4473
20.53787 15.8868 344.0627 355.1518
20.57073 16.06118 344.3711 354.9873
20.60222 16.20779 344.8616 354.9531
20.63364 16.11773 345.3712 354.9979
20.66444 16.09388 345.7664 355.1135
20.69778 16.06091 346.4022 355.2349
20.72851 15.96435 347.3932 355.4941
20.75966 16.11363 347.8025 355.4464
20.79052 16.19149 348.272 355.6357
20.8233 16.53497 348.6396 355.8679
20.85663 16.97757 349.1599 355.8481
20.88806 16.93156 349.8788 355.6674
20.91886 16.95741 351.0227 355.4385
20.95101 17.86071 352.1549 354.1832
20.98317 20.3157 352.9077 353.0156
21.01513 25.59075 353.9231 351.3219
21.04555 30.99537 354.5967 348.7753
21.07656 35.22298 354.6229 347.6128
21.10989 38.03374 354.811 347.0168
21.14147 39.07149 355.7478 346.9573
21.17462 38.88017 0.1767223 348.888
21.20795 35.91747 5.362505 352.9741
21.23781 32.37187 5.594693 352.282
21.26915 29.53871 5.972084 352.5399
21.30249 23.7484 5.673771 351.8525
21.33451 20.58212 4.06605 351.6967
21.36743 19.13806 1.534302 350.2865
21.40062 19.25008 359.9426 349.604
21.43214 19.75396 359.6129 349.5967
21.46444 18.89635 359.7893 348.7829
21.49778 14.54366 2.0801 348.946
21.53111 22.08555 2.205127 350.2465
21.56262 25.85199 2.101782 349.5638
21.59463 24.17868 5.817883 350.4512
21.62757 23.23174 7.70455 350.0193
21.6602 23.34157 8.079187 347.7864
21.69334 27.91395 6.440195 350.4008
21.72496 32.33826 0.9620202 354.2467
21.75816 38.65027 359.6762 355.5975
21.78928 43.38272 1.643993 357.9008
21.82123 17.96043 4.053823 355.8011
21.85255 14.02607 0.04426344 348.6628
21.88589 11.30703 357.0601 344.3055
21.91656 8.048553 352.8034 341.4182
21.94989 2.098057 351.67 341.7971
21.97996 6.397151 349.1319 342.0767
22.0133 9.264443 348.3412 342.283
22.04578 9.277512 348.2272 341.6246
22.07911 9.372255 348.4156 341.8672
22.11245 8.730947 349.3172 343.0429
22.14415 8.982645 349.8213 344.0369
22.17748 9.230524 349.4994 344.5966
22.21081 8.577046 349.1369 344.5987
22.24296 8.440483 349.5678 345.2829
22.27332 9.016186 349.2587 344.7209
22.30613 9.591113 349.1422 344.08
22.33947 9.589756 349.1325 343.6686
22.37125 9.311024 349.104 343.7603
22.4038 9.261413 349.2784 344.2213
22.43685 9.457765 349.5468 344.735
22.4673 9.706382 349.9333 344.9257
22.50064 10.05757 350.063 344.8311
22.53165 10.19882 350.0949 344.8112
22.56496 10.45499 350.276 345.0244
22.59804 10.18227 350.1697 345.1758
22.63012 10.14803 350.2325 345.1591
22.66172 10.27882 350.0134 345.0294
22.69506 10.1379 349.9673 344.976
22.72662 9.974809 350.0738 344.8571
22.75898 9.889371 349.8679 344.9483
22.79231 9.851112 349.8753 345.0048
22.82526 9.708996 349.8945 345.1668
22.85732 9.6451 349.8598 345.2584
22.8885 9.628372 349.9263 345.2524
22.92183 9.643364 349.9568 345.1722
22.95479 9.585654 350.0511 345.1666
22.98813 9.606564 350.0998 345.1635
23.02048 9.576211 350.1248 345.1615
23.05382 9.56062 350.1622 345.2288
23.08715 9.544212 350.27 345.3458
23.12049 9.501023 350.3275 345.3689
23.15382 9.426025 350.3706 345.3534
23.18694 9.394924 350.4507 345.4661
23.22028 9.353981 350.3935 345.5479
23.25361 9.257801 350.3992 345.7171
23.28641 9.025567 350.5916 345.7017
23.31958 9.003725 350.5184 345.7524
23.35291 9.155161 350.4785 345.7836
23.38625 9.243765 350.5661 345.6677
23.41958 9.286277 350.5145 345.4465
23.45291 9.351121 350.6837 345.5139
23.48625 9.220038 350.7234 345.756
23.51958 9.166127 350.625 345.8675
23.54981 9.144631 350.4538 345.7205
23.58282 9.062157 350.3209 345.6205
23.61546 9.002045 350.1729 345.6208
23.64708 8.9898 350.1604 345.7771
23.6799 8.944714 350.2359 345.8422
23.71323 8.983455 350.4067 345.7773
23.74646 9.003781 350.551 345.8367
23.77979 8.978558 350.563 345.9833
23.81279 8.965597 350.5493 346.1513
23.84481 8.99038 350.589 346.2463
23.87766 8.917086 350.5933 346.2437
23.9078 8.96001 350.5151 346.1937
23.94114 8.929354 350.4496 346.1667
23.97447 8.93233 350.3234 346.1698
24.00616 8.956507 350.3479 346.1663
24.03578 8.888772 350.2892 346.1819
24.06767 8.901887 350.2439 346.1519
24.101 8.876883 350.2838 346.1785
24.13334 8.909226 350.2517 346.3286
24.16471 8.933964 350.2574 346.3537
24.19804 8.990821 350.2599 346.2896
24.22866 9.016511 350.2583 346.2697
24.26199 9.03463 350.2637 346.2729
24.29533 8.968225 350.2403 346.3007
24.32866 8.962476 350.245 346.311
24.3602 8.988745 350.2387 346.3113
24.39224 8.931959 350.2849 346.3545
24.42558 8.911073 350.3965 346.232
24.4565 8.891422 350.5519 346.1379
24.48983 8.797873 350.659 346.1652
24.52046 8.742497 350.7151 346.2995
24.55185 8.716001 350.7329 346.3587
24.58341 8.745857 350.7476 346.4296
24.61674 8.746202 350.7427 346.5031
24.65007 8.674837 350.7304 346.5302
24.68048 8.661612 350.7192 346.5718
24.71382 8.650383 350.7201 346.5974
24.74715 8.612208 350.7159 346.6311
24.78049 8.550499 350.7416 346.6236
24.8123 8.574967 350.7723 346.6705
24.84358 8.5591 350.7598 346.7615
24.87692 8.597788 350.7677 346.7954
24.90919 8.569863 350.8371 346.8063
24.94252 8.585943 350.8728 346.8441
24.97585 8.557854 350.8692 346.9078
25.00814 8.552188 350.8883 346.919
25.04148 8.538172 350.9286 346.9667
25.07478 8.608744 350.9321 346.9782
25.10812 8.596107 350.9559 346.955
25.13989 8.566328 350.9813 346.9911
25.17116 8.566768 350.9522 347.0187
25.20276 8.546719 350.969 347.0045
25.23383 8.523636 350.9834 347.0268
25.26716 8.524208 351.0221 347.0095
25.30049 8.537478 351.0506 347.011
25.33383 8.590217 351.0934 347.0322
25.36716 8.611428 351.1155 347.0431
25.40049 8.630997 351.1296 347.0176
25.43383 8.665115 351.1736 347.1104
25.46635 8.627802 351.229 347.1315
25.49968 8.638608 351.213 347.1147
25.53208 8.610312 351.2093 347.1358
25.56438 8.620256 351.2138 347.1689
25.59536 8.651732 351.2267 347.2067
25.62717 8.636618 351.2188 347.1699
25.6605 8.6416 351.2123 347.1657
25.69384 8.652494 351.229 347.188
25.72717 8.649087 351.2059 347.2096
25.7605 8.617035 351.1883 347.1706
25.79264 8.649582 351.1795 347.2105
25.82579 8.666147 351.1946 347.24
25.85641 8.646569 351.2355 347.2551
25.88734 8.631388 351.2663 347.2706
25.9201 8.654737 351.2743 347.2622
25.95344 8.709566 351.3194 347.2462
25.98559 8.668306 351.3126 347.277
26.01793 8.605895 351.2847 347.3199
26.05055 8.571754 351.2598 347.3826
26.08306 8.589378 351.2651 347.4238
26.11639 8.61964 351.2534 347.3878
26.14972 8.630091 351.2318 347.3565
26.18306 8.603424 351.2078 347.3922
26.21585 8.608747 351.1945 347.4957
26.24713 8.558357 351.1786 347.5284
26.28046 8.573577 351.1945 347.5189
26.3138 8.581984 351.2177 347.4534
26.34444 8.569584 351.2552 347.4964
26.37777 8.596334 351.2531 347.6284
26.4111 8.556498 351.2574 347.6463
26.44444 8.572351 351.258 347.6461
26.47777 8.613523 351.2534 347.618
26.50981 8.568595 351.2214 347.6855
26.54253 8.561494 351.2275 347.7435
26.57291 8.580945 351.2114 347.7286
26.60479 8.565001 351.2063 347.7141
26.63813 8.522737 351.1736 347.702
26.67146 8.572581 351.1438 347.785
26.70275 8.591189 351.1305 347.8
26.73609 8.580642 351.1169 347.7755
26.76713 8.603251 351.0172 347.6981
26.79893 8.64459 350.9942 347.6896
26.83226 8.614635 350.9741 347.6719
26.86559 8.59663 350.9708 347.7226
26.89893 8.573722 350.9461 347.7401
26.93226 8.603715 350.9822 347.7207
26.96247 8.653494 350.9619 347.7111
26.99329 8.656264 350.9358 347.6532
27.02519 8.623764 350.9557 347.6469
27.05853 8.59642 350.9409 347.7434
27.09152 8.525683 350.9274 347.7979
27.12485 8.579092 350.9601 347.7763
27.15819 8.58558 351.0165 347.7625
27.18929 8.589073 351.0302 347.7443
27.21976 8.612693 351.0009 347.7601
27.24992 8.650234 350.9529 347.7552
27.28086 8.599382 350.8798 347.7795
27.31419 8.693443 350.8831 347.7864
27.34752 8.659145 350.9128 347.657
27.37851 8.719578 350.9566 347.5602
27.40856 8.709327 350.9443 347.5331
27.44144 8.679822 350.9255 347.5941
27.47364 8.694581 350.8771 347.6571
27.50467 8.6955 350.8245 347.6288
27.5371 8.713566 350.8458 347.5618
27.57043 8.730794 350.8124 347.58
27.60376 8.739128 350.8338 347.6429
27.63478 8.705094 350.7973 347.673
27.66801 8.686365 350.7798 347.6968
27.70135 8.743647 350.7746 347.7018
27.73468 8.759622 350.76 347.65
27.76801 8.8055 350.7365 347.6097
27.80134 8.806482 350.7151 347.5443
27.83468 8.809211 350.7068 347.4906
27.86801 8.834104 350.6468 347.4574
27.89942 8.784425 350.6062 347.4325
27.93045 8.816805 350.6003 347.4494
27.96239 8.770232 350.5577 347.4557
27.99482 8.813365 350.5801 347.4289
28.02815 8.761927 350.631 347.4781
28.05908 8.786107 350.6804 347.5466
28.08981 8.846877 350.7601 347.5562
28.1199 8.840212 350.766 347.5092
28.15086 8.864108 350.8055 347.4765
28.18417 8.838844 350.7709 347.4987
28.2175 8.740557 350.6348 347.623
28.25083 8.704841 350.4805 347.6316
28.28102 8.696987 350.4924 347.5101
28.31424 8.697777 350.4623 347.5217
28.34758 8.748724 350.4094 347.6694
28.37955 8.619314 350.3103 347.8203
28.41164 8.691134 350.4361 347.7282
28.44332 8.755701 350.4877 347.6199
28.47665 8.736027 350.524 347.6862
28.50973 8.772712 350.5337 347.7979
28.5425 8.807269 350.5305 347.753
28.57418 8.805978 350.5693 347.645
28.60463 8.751171 350.5404 347.5829
28.63796 8.702575 350.4658 347.618
28.67129 8.68451 350.3912 347.6682
28.70422 8.667409 350.3812 347.7374
28.73674 8.680304 350.3792 347.7188
28.76877 8.684772 350.4185 347.6494
28.80052 8.643807 350.4685 347.7198
28.83284 8.648999 350.4591 347.768
28.86278 8.61614 350.471 347.8159
28.89331 8.629031 350.4936 347.8443
28.92648 8.57237 350.5027 347.8405
28.95864 8.577422 350.4927 347.7798
28.99197 8.610355 350.483 347.7524
29.02275 8.548777 350.4619 347.7889
29.05474 8.576801 350.4362 347.7614
29.08493 8.576262 350.4442 347.6625
29.11612 8.576367 350.4457 347.6738
29.14945 8.552966 350.4677 347.7295
29.18279 8.563444 350.453 347.7357
29.21612 8.481011 350.4426 347.7847
29.2475 8.487014 350.4278 347.864
29.28083 8.443445 350.4507 347.8616
29.31403 8.447643 350.4435 347.8921
29.34736 8.442865 350.4536 347.9366
29.38069 8.452479 350.4985 347.9648
29.41403 8.440519 350.4928 347.9537
29.44736 8.465167 350.4953 347.9133
29.47913 8.447753 350.5003 347.9279
29.51185 8.452567 350.457 347.9637
29.54456 8.434139 350.3846 347.9778
29.5747 8.406119 350.3505 347.9401
29.60803 8.395595 350.363 347.8888
29.63802 8.381828 350.3453 347.9114
29.67136 8.364446 350.383 347.9614
29.70469 8.404643 350.4302 348.0068
29.73523 8.488363 350.4891 348.0166
29.76842 8.462494 350.5398 348.1512
29.80056 8.364241 350.6396 348.2123
29.83211 8.344902 350.672 348.1952
29.86292 8.352722 350.6957 348.1561
29.89625 8.333384 350.6387 348.1379
29.92958 8.279812 350.6138 348.1849
29.95938 8.249842 350.6147 348.2455
29.99272 8.288499 350.5904 348.2595
30.02605 8.273247 350.6002 348.2518
30.05476 8.215157 350.6624 348.252
30.08597 8.185436 350.6814 348.3112
30.11931 8.170661 350.6896 348.325
30.14852 8.146127 350.7076 348.3481
30.18089 8.138712 350.6935 348.3419
30.21334 8.163329 350.6957 348.2971
30.24667 8.167364 350.7076 348.2518
30.28 8.162109 350.6797 348.2532
30.31334 8.138097 350.6711 348.2755
30.34667 8.154958 350.6974 348.2707
30.38 8.137338 350.7179 348.271
30.41334 8.182486 350.7365 348.2347
30.44431 8.133738 350.7282 348.2431
30.47765 8.097851 350.6838 348.2941
30.51098 8.012647 350.7278 348.3399
30.54353 7.991196 350.7486 348.3502
30.57686 7.979504 350.728 348.3521
30.61019 7.991145 350.74 348.3362
30.64353 7.95725 350.7301 348.3492
30.67686 7.960008 350.722 348.3615
30.71019 7.921961 350.7059 348.3823
30.74352 7.841402 350.7043 348.2629
30.77542 7.611529 350.5909 347.9266
30.80872 7.315934 350.3638 347.4905
30.84027 7.139223 350.2791 347.2535
30.87361 7.002249 350.2676 347.3407
30.90383 6.733446 350.3401 347.782
30.93716 6.540941 350.3953 348.3636
30.97049 6.563973 350.5817 348.7867
31.00383 7.124544 350.8112 348.6972
31.03716 7.497193 350.9418 348.698
31.06769 7.764635 351.0574 348.841
31.09717 7.704767 351.0934 348.909
31.12761 7.62777 350.9957 348.988
31.16094 7.62012 350.7157 349.2154
31.19427 7.590315 350.4749 349.2942
31.22342 7.455554 350.2653 349.0321
31.25575 7.28738 350.2197 348.5383
31.28908 7.196732 350.2156 348.261
31.31907 6.324129 350.4666 348.7682
31.35141 5.885289 350.768 349.8923
31.38246 5.074862 351.0589 349.8835
31.41388 4.830259 351.4038 349.6481
31.44721 5.807335 351.6869 349.8714
31.47975 5.973593 351.4165 348.6887
31.51111 6.806962 353.3364 346.0056
31.54444 7.717111 354.9317 344.6358
31.57778 7.204477 357.3851 346.9331
31.60879 7.857279 357.6672 349.8839
31.64154 13.14957 354.6508 353.6794
31.67381 18.36502 358.2567 356.1183
31.70714 17.42046 3.148299 355.8887
31.73895 26.90955 1.000896 358.7128
31.77228 35.32739 358.7406 356.801
31.80562 42.86639 359.9507 356.5788
31.83895 48.47276 0.8421103 355.9234
31.87228 51.2324 356.9391 350.9631
31.90562 54.99884 352.9321 345.3331
31.93895 55.43081 349.7796 339.1395
31.97199 55.76212 347.569 338.3446
32.00357 58.49599 344.0345 336.7042
32.0369 56.7301 338.8349 332.4351
32.06862 54.18776 343.3622 336.1142
32.09935 56.06987 348.0792 340.4057
32.12993 51.1974 351.9595 346.1552
32.16214 49.04985 352.7432 350.7074
32.19442 47.15115 352.9846 351.6593
32.22729 48.52825 350.2356 347.9624
32.26052 52.75287 346.6986 343.4719
32.29073 55.99829 344.2683 338.9977
32.32352 56.80798 342.5079 336.2246
32.35561 57.13695 343.4869 336.9103
32.38634 56.49504 349.1342 342.3604
32.41967 52.28558 353.6774 347.2212
32.45098 48.69526 356.0909 351.4631
32.4825 43.27002 2.408517 358.4656
32.51583 39.71116 5.116863 1.380824
32.54877 39.244 6.30838 3.537181
32.5793 36.43443 5.659912 3.581969
32.61263 33.38039 6.49693 4.250236
32.64527 28.61973 7.77458 5.594542
32.67767 24.35139 8.004696 5.752127
32.7102 16.2392 6.831541 4.420055
32.74009 7.98825 6.349987 3.053145
32.77186 1.666655 6.152298 2.841661
32.8052 7.742088 7.752209 3.159757
32.83677 17.7187 9.4614 0.4310044
32.87011 19.96546 12.59061 357.911
32.90152 18.29486 14.50545 357.6734
32.93486 16.09128 10.94344 358.4986
32.96508 10.74339 6.679189 1.221018
32.99788 6.075021 6.64248 3.85134
33.03121 5.099969 7.008141 2.907621
33.0616 3.85515 6.680856 1.231231
33.09493 2.194044 5.649951 1.269817
33.12624 359.821 4.195048 2.776774
33.15839 358.4034 3.293901 4.287313
33.19049 357.5698 4.382847 4.740231
33.22382 357.5283 5.935606 4.127915
33.25716 357.5679 6.590705 3.759504
33.29049 358.2346 6.089573 4.181514
33.32382 359.2616 4.349281 4.595587
33.35693 0.9842396 2.197595 4.642478
33.38773 2.619507 359.6773 4.539501
33.42107 4.43909 356.3901 4.438394
33.45061 6.1946 352.7021 3.990014
33.48393 6.982263 349.2936 3.742707
33.51726 7.348608 346.2708 3.133013
33.54694 7.425289 342.8562 1.985265
33.57815 7.863865 339.9222 1.176337
33.61148 8.773151 337.2393 0.2213087
33.64297 8.968428 335.1238 0.03749423
33.67495 8.845679 333.4184 0.09081024
33.70828 9.486054 331.6834 359.2986
33.73759 10.3773 330.1093 358.5904
33.76893 10.89485 328.853 358.138
33.80226 10.71017 327.5882 357.6385
33.8336 10.70306 326.784 357.2221
33.86694 10.61642 326.0697 356.6009
33.89865 10.5418 325.2972 356.4332
33.93081 10.5881 324.6727 356.3428
33.96414 10.80692 323.2776 356.0241
33.99747 10.8236 321.6647 355.5757
34.02678 10.43079 320.7017 355.2407
34.05851 10.00759 319.8889 354.9684
34.09102 9.835549 318.852 354.649
34.12346 9.739995 318.0109 354.2803
34.15679 9.444852 317.0007 354.1616
34.19012 9.177334 316.1822 354.2708
34.22345 9.027506 315.944 354.5242
34.25679 9.066412 316.3374 354.669
34.29012 8.982745 316.9723 354.7411
34.32345 8.861284 317.2809 355.0899
34.35679 8.973975 317.2866 355.1065
34.39012 9.033864 316.9885 354.9752
34.42196 9.189834 316.8321 354.9971
34.45525 9.415834 316.8142 354.9124
34.48858 9.206649 316.9873 355.0692
34.51962 9.319888 317.1158 355.101
34.55295 9.414379 317.258 355.3768
34.58352 9.446932 317.1973 355.5982
34.61384 9.528585 317.2045 355.8086
34.64717 9.569354 317.2784 355.9254
34.67871 9.34109 317.7334 356.2108
34.71099 9.606621 318.1968 356.2739
34.74364 9.847451 318.5375 356.2085
34.77611 9.844725 318.7753 356.3423
34.80944 9.919289 318.7523 356.4531
34.84278 10.18456 318.5515 356.4402
34.87611 10.12272 318.5224 356.4003
34.90637 10.11185 319.2483 356.2675
34.93723 10.21661 319.2065 356.2856
34.97057 10.41565 319.2556 356.1862
35.00233 10.64832 319.2726 356.0348
35.03566 10.55355 319.2678 356.2742
35.06899 10.46216 318.9884 356.5392
35.0999 10.36553 319.0193 356.4226
35.13323 10.42807 319.0698 356.1881
35.16652 10.34835 319.0244 356.1674
35.19986 10.40002 318.8643 356.0404
35.23319 10.48789 318.911 355.7882
35.2653 10.61981 318.8767 355.6051
35.29863 10.56591 319.2717 355.6911
35.33196 10.41937 319.5961 355.55
35.36428 10.45367 319.7231 355.4051
35.39745 10.53651 319.7961 355.3407
35.43078 10.57955 319.8704 355.4045
35.46189 10.55657 320.0415 355.3035
35.49413 10.45804 320.1819 355.4253
35.52645 10.37112 320.1853 355.3988
35.55692 10.34251 320.2146 355.3213
35.58731 10.26541 320.2882 355.2812
35.62064 10.22287 320.3395 355.3071
35.65195 10.2196 320.4044 355.2049
35.68512 10.33737 320.4941 355.1721
35.71846 10.28804 320.5572 355.2531
35.75043 10.21502 320.6422 355.2399
35.78156 10.27977 320.8212 355.1464
35.81418 10.31192 320.8397 355.1335
35.84616 10.51847 320.7593 355.0817
35.87757 10.62969 320.905 355.0797
35.91091 10.42696 320.9091 355.118
35.94424 10.46547 321.019 355.0833
35.97757 10.56611 321.0932 354.9707
36.00887 10.50951 321.1974 354.815
36.04153 10.65821 321.268 354.7543
36.0717 10.80097 321.1922 354.5727
36.10265 10.85374 321.1853 354.5132
36.13526 10.83891 321.2995 354.481
36.16585 10.69878 321.3568 354.4846
36.19851 10.66138 321.2865 354.3671
36.22916 10.57234 321.4353 354.3342
36.25951 10.45502 321.4515 353.8065
36.29179 10.40104 321.3887 353.7659
36.32512 10.23849 321.0811 353.6981
36.35524 10.15143 320.4736 353.8837
36.38795 9.939068 320.1954 353.8726
36.42123 9.679099 319.7544 354.1648
36.45082 9.595021 319.2394 354.1233
36.48416 9.503078 318.7405 354.2209
36.51683 9.094794 318.0022 354.3624
36.55009 8.575328 316.9705 354.4838
36.58342 8.147668 315.7453 354.4033
36.61676 7.803114 314.6619 354.0219
36.64991 7.678343 313.4357 354.0187
36.68247 7.792691 312.4607 354.2093
36.71343 7.936116 311.6512 353.8008
36.74677 7.858136 311.4879 353.8109
36.7801 7.601959 311.2537 354.1946
36.81343 7.664595 311.0561 354.2921
36.84575 7.647648 311.1302 354.6352
36.87908 7.493786 311.1161 354.8624
36.91241 7.496563 311.053 354.8835
36.94284 7.394684 311.1389 355.227
36.97554 7.456903 311.253 355.3795
37.00887 7.573957 311.5771 355.5503
37.04112 7.559618 312.1136 355.7086
37.07446 7.584822 312.434 355.8359
37.10779 7.673354 312.5294 355.917
37.14027 7.942722 312.4467 355.8365
37.17276 8.049579 312.3786 355.6651
37.20588 8.148942 312.396 355.7679
37.23634 8.217333 312.2793 355.7491
37.2695 8.150862 312.2997 355.7963
37.30284 8.032133 312.1137 355.9625
37.33463 8.147458 312.2426 355.8609
37.36694 8.128087 312.2554 355.7746
37.3988 8.219704 312.1611 355.7701
37.43212 8.391452 312.1047 355.5452
37.46376 8.335752 312.1701 355.598
37.4971 8.290619 312.2502 355.614
37.52779 8.357032 312.2461 355.4675
37.56112 8.279193 312.3548 355.4982
37.59182 8.324295 312.4207 355.4875
37.62515 8.427114 312.4176 355.3554
37.65755 8.444821 312.4718 355.2512
37.69088 8.485083 312.364 355.2266
37.72421 8.400388 312.234 355.292
37.75755 8.339522 312.2807 355.3281
37.79088 8.303287 312.4125 355.257
37.82235 8.334372 312.3018 355.3006
37.85568 8.442593 312.2453 355.2296
37.8882 8.485339 312.2792 355.2162
37.92056 8.298436 312.3176 355.313
37.95389 8.372363 312.1628 355.272
37.98492 8.433954 312.1534 355.1803
38.01713 8.37124 312.2575 355.2062
38.05046 8.352806 312.2925 355.2022
38.08155 8.489341 312.2943 355.11
38.11135 8.585462 312.2452 354.9843
38.14468 8.51723 312.2746 354.9917
38.17801 8.621815 312.3702 354.916
38.20723 8.587221 312.4901 354.8671
38.23798 8.523271 312.4179 354.9402
38.27131 8.517719 312.4491 354.8874
38.30313 8.531381 312.4907 354.8352
38.33399 8.440435 312.5201 354.9284
38.36688 8.475893 312.5838 354.9005
38.39842 8.60219 312.7463 354.7772
38.43024 8.516363 313.071 354.9381
38.4623 8.505872 313.3082 354.9682
38.49563 8.602674 313.3757 354.95
38.52896 8.469969 313.269 354.9357
38.56229 8.392634 313.0524 354.9476
38.59563 8.359496 313.072 354.9447
38.62896 8.530627 313.074 354.8948
38.6611 8.729736 313.0164 354.7659
38.69256 8.682487 312.8257 354.7414
38.72435 8.608448 312.7563 354.7606
38.75758 8.694659 312.6544 354.6961
38.79051 8.703035 312.6048 354.6934
38.82384 8.743386 312.4677 354.5698
38.85717 8.834677 312.5085 354.476
38.89051 8.947951 312.3658 354.3517
38.92384 8.855141 312.4324 354.4479
38.95717 8.913133 312.4044 354.4432
38.98705 8.964402 312.5293 354.32
39.02039 8.940942 312.5636 354.3
39.05322 9.098315 312.6547 354.1066
39.08655 9.158254 312.5998 353.8284
39.11988 9.189165 312.72 353.8393
39.15322 9.265692 312.6907 353.7762
39.18417 9.270855 312.7137 353.7374
39.21719 9.199239 312.7476 353.7045
39.25053 9.27578 312.7206 353.7289
39.28188 9.268685 312.6487 353.7924
39.3133 9.124035 312.6646 353.8679
39.34663 9.125941 312.7145 353.7779
39.37769 9.140738 312.7234 353.8214
39.41103 9.238742 312.6407 353.7982
39.44419 9.306509 312.6697 353.7262
39.47752 9.222361 312.6134 353.8398
39.5102 9.081844 312.5669 353.9391
39.54353 9.038006 312.6198 353.9641
39.57508 8.938413 312.7012 354.007
39.60842 8.92092 312.7422 354.1141
39.64175 9.160838 312.7482 353.9628
39.67508 9.18114 312.8653 354.0522
39.70745 8.926468 313.0035 354.2085
39.74079 8.964865 313.0701 354.2075
39.77412 8.844832 313.2875 354.3569
39.80746 8.830355 313.3965 354.4238
39.84079 8.778748 313.4802 354.3934
39.87412 8.864571 313.5878 354.5265
39.90746 8.838012 313.749 354.5294
39.93845 8.665246 313.9474 354.377
39.97179 8.653097 314.0363 354.2769
40.00512 8.716318 314.0393 354.4251
40.03558 8.691235 314 354.3619
40.06781 8.632254 314.2881 354.2591
40.10114 8.684452 314.408 354.3246
40.13375 8.886279 314.5569 354.2109
40.16473 8.931621 314.8365 354.2445
40.19807 9.014922 315.3712 354.2328
40.23021 9.408566 315.992 354.0534
40.26286 9.794083 317.0498 353.8563
40.2962 10.46856 318.4045 353.4906
40.32779 11.42166 319.8225 353.039
40.35999 12.247 321.5462 353.0667
40.39188 12.59753 323.232 353.4101
40.4242 12.81113 324.4943 353.5322
40.45753 12.86416 326.397 354.1877
40.49086 12.95105 328.4914 354.1206
40.5232 13.30604 329.9627 354.2124
40.55608 13.54495 330.6927 353.9824
40.58913 13.80271 331.0651 353.6587
40.62247 13.91496 331.2895 353.496
40.65456 14.00881 331.4064 353.3611
40.68789 14.14078 331.3998 353.0008
40.72123 14.33949 331.1858 352.7012
40.75456 14.37978 330.8916 352.5528
40.78644 14.46938 330.7115 352.1392
40.81977 14.67319 330.4152 352.0779
40.85246 14.8867 330.0572 351.6376
40.88461 14.78815 329.7795 351.6092
40.91596 14.63231 329.6824 351.5363
40.94837 14.39899 329.6773 351.5917
40.97924 14.26286 329.6578 351.525
41.01258 14.47194 329.7612 351.5547
41.0442 14.57041 329.8548 351.6151
41.07748 14.6183 330.0187 351.6294
41.10948 14.56657 330.0554 351.6486
41.14281 14.57161 330.0908 351.5972
41.17522 14.73246 330.1551 351.5787
41.20719 14.77821 330.3784 351.6445
41.24052 14.76978 330.5062 351.7216
41.27323 14.78462 330.5209 351.7489
41.30452 14.88058 330.6312 351.751
41.33612 14.984 330.7205 351.7212
41.36946 14.95797 330.7296 351.7404
41.40279 15.01635 330.8275 351.6469
41.4348 15.32579 330.9781 351.4558
41.46655 15.24358 331.1226 351.5338
41.49694 15.213 331.1533 351.4912
41.52939 15.37799 331.3091 351.2877
41.56273 15.58287 331.4614 351.2084
41.59606 15.61401 331.572 351.1006
41.62939 15.87851 331.7609 350.8876
41.66273 16.0874 332.0283 350.7744
41.69606 16.12343 331.9466 350.7036
41.72783 16.0802 332.0467 350.5674
41.76117 16.03205 332.1386 350.4185
41.79245 16.23885 332.1704 350.2613
41.82285 16.39292 332.2591 350.0977
41.85619 16.33121 332.2904 350.0931
41.88831 16.3255 332.4124 350.0728
41.9216 16.42725 332.6112 350.0092
41.95494 16.52392 332.8555 350.0161
41.98827 16.52074 333.242 350.0789
42.0216 16.59132 333.6014 350.1648
42.05494 16.71019 334.2228 350.2967
42.08739 16.93557 334.7507 350.3318
42.11937 17.18645 336.0703 350.5147
42.15271 17.22254 337.1709 350.7883
42.18444 17.42716 338.8064 351.3476
42.21778 17.55235 340.3007 351.8199
42.25111 17.73948 341.7339 352.0242
42.28445 17.94056 342.8292 352.2048
42.31512 18.10974 343.9193 352.4282
42.34845 18.30451 345.1843 352.4485
42.38091 18.29056 346.6085 352.6306
42.41425 18.22882 347.4954 353.129
42.4466 18.32317 347.7776 353.1272
42.47816 18.37786 347.9876 353.1755
42.5115 18.26898 347.7039 353.0462
42.54243 18.24755 346.9209 352.8283
42.57549 18.02599 346.3335 352.707
42.60882 17.84397 345.7573 352.6393
42.64034 17.79852 345.155 352.496
42.67252 17.70023 344.8093 352.3957
42.70445 17.68844 344.5862 352.3384
42.73771 17.70939 344.458 352.2715
42.76818 17.67652 344.1247 352.1839
42.80136 17.62023 343.9263 352.1753
42.8347 17.67435 343.7377 351.9808
42.86695 17.61219 343.5221 352.0605
42.90028 17.47016 343.4143 352.0964
42.93335 17.43988 343.3073 352.1478
42.96669 17.58883 343.149 352.0861
42.99928 17.6491 343.1079 352.1296
43.03191 17.81046 342.9627 352.1725
43.06461 17.87969 343.015 352.1616
43.09794 17.88319 343.1297 352.328
43.12971 17.73881 343.2434 352.4954
43.16146 17.82169 343.3523 352.4709
43.19389 18.02348 343.4758 352.5042
43.22723 18.06336 343.5373 352.5345
43.25893 18.05373 343.4384 352.6056
43.29059 18.0341 343.5078 352.6842
43.32392 17.94516 343.5372 352.7068
43.35697 17.81119 343.4335 352.7865
43.38987 17.92413 343.3679 352.748
43.42173 18.00264 343.3968 352.7084
43.45397 18.07789 343.3513 352.7128
43.48563 18.06538 343.279 352.6862
43.51677 18.09313 343.2155 352.6848
43.5501 18.0803 343.258 352.6284
43.58093 18.00007 343.2056 352.6436
43.61427 17.97746 343.2519 352.6245
43.6476 18.0252 343.2714 352.6032
43.67726 18.01103 343.2732 352.6163
43.71059 17.99018 343.2165 352.622
43.74392 17.83168 343.2626 352.6738
43.77449 17.74045 343.2682 352.714
43.80782 17.79629 343.2539 352.652
43.84116 17.87933 343.299 352.5736
43.87449 17.97866 343.2135 352.5295
43.90697 18.10723 343.1483 352.4466
43.93748 17.93573 343.2221 352.4728
43.97066 17.82366 343.1664 352.542
44.00399 17.97281 343.0396 352.4553
44.03592 18.04466 343.0157 352.3936
44.06926 18.15714 342.9099 352.3765
44.10259 18.32233 342.8404 352.283
44.13593 18.32355 342.9135 352.2089
44.16803 18.25974 342.9014 352.3453
44.20031 18.44003 342.7516 352.2523
44.23364 18.53596 342.7381 352.1035
44.26534 18.44229 342.8326 352.1313
44.29628 18.454 342.7195 352.2181
44.32774 18.5917 342.6902 352.1612
44.3592 18.46148 342.7094 352.213
44.39253 18.31966 342.7385 352.356
44.42398 18.39936 342.7601 352.3036
44.45404 18.44782 342.7872 352.2801
44.48737 18.44175 342.8157 352.2776
44.51993 18.67888 342.8318 352.2358
44.55326 18.75049 342.8301 352.1732
44.58572 18.70911 342.8374 352.1887
44.61766 18.71754 342.7534 352.1734
44.651 18.6235 342.788 352.2029
44.68433 18.57503 342.7245 352.2871
44.71742 18.68989 342.705 352.159
44.74982 18.60848 342.7599 352.169
44.78316 18.63074 342.7085 352.1939
44.81649 18.71521 342.7163 352.1655
44.84982 18.67518 342.6464 352.1716
44.88248 18.49706 342.6561 352.2249
44.91581 18.49015 342.6514 352.2589
44.94915 18.51284 342.5982 352.2467
44.98138 18.63513 342.5389 352.1983
45.01471 18.67692 342.6337 352.1589
45.04805 18.69723 342.7344 352.208
45.08036 18.74925 342.853 352.2713
45.1133 18.82968 342.9114 352.2376
45.14663 18.8832 342.9452 352.2112
45.17996 18.9253 342.9886 352.1926
45.2105 19.09869 343.0577 352.1371
45.24183 19.18155 343.1039 352.0566
45.27475 19.15202 343.1434 352.0962
45.30487 19.18285 343.0847 352.0735
45.33542 19.22097 343.0812 351.9724
45.36848 19.21549 343.0725 352.007
45.40043 19.1516 343.038 352.0389
45.43376 19.25086 343.0189 352.0055
45.46709 19.55807 343.4832 352.0678
45.50043 19.84772 344.6252 352.4127
45.53071 20.26198 347.1495 353.2119
45.56404 20.70191 349.6737 353.8278
45.59738 21.30832 353.4463 354.8193
45.6298 21.66454 356.1248 355.8103
45.66248 22.12341 358.2729 356.3837
45.69561 22.6302 0.04687832 356.7411
45.72588 22.91979 1.335883 356.9847
45.75713 22.86119 1.998016 357.2774
45.78993 22.78681 2.536062 357.732
45.82327 22.931 2.845605 357.7714
45.85594 23.2453 3.355345 357.8317
45.88927 23.83233 3.706771 357.737
45.91947 24.59387 3.990968 357.5359
45.95198 24.89707 3.989769 357.3757
45.98285 25.16026 3.869018 357.1592
46.0144 25.42704 3.432948 356.9539
46.04773 25.52087 2.882059 356.6691
46.07821 25.49224 2.360066 356.4505
46.10866 25.53252 1.67369 356.2379
46.14199 25.53284 0.9727082 355.9696
46.17265 25.55316 0.1364941 355.5834
46.20599 25.55557 359.2227 355.1694
46.23932 25.47416 358.0805 354.932
46.27169 25.43375 356.8544 354.7837
46.30264 25.27672 355.7359 354.4775
46.33597 25.13559 355.1141 354.3208
46.3693 25.10211 353.7545 354.0251
46.40252 25.10177 353.0149 353.9124
46.43499 25.03511 352.4349 353.7754
46.46827 24.80087 352.0155 353.7113
46.5016 24.63659 351.8938 353.8808
46.53362 24.58585 351.9044 354.0415
46.56695 24.82562 352.176 354.2191
46.59979 24.94705 352.2395 354.3008
46.632 25.0457 352.2512 354.407
46.66534 25.2016 352.1469 354.3538
46.69638 25.21191 352.1442 354.3221
46.72971 25.21789 352.0223 354.5986
46.76225 25.0078 352.1389 354.3677
46.79558 25.25585 351.7293 354.1466
46.82743 25.33801 350.8699 353.8198
46.86076 24.72454 350.9576 353.9804
46.89409 22.78621 350.9663 354.3836
46.92561 21.4107 350.5961 354.7079
46.95895 20.16915 350.0313 355.0139
46.99195 19.30838 349.2332 355.2567
47.02472 18.54001 348.8064 355.5975
47.05805 18.11241 348.0038 355.7512
47.0894 17.66606 347.3983 355.8188
47.12273 16.85747 347.9299 355.3463
47.15607 16.03023 347.6606 355.384
47.18818 15.80171 346.3998 355.457
47.22102 15.91855 345.2345 355.5777
47.25435 16.08557 344.927 355.2963
47.28545 15.76996 346.3667 355.7727
47.31756 15.87808 348.3369 356.2312
47.35089 15.66296 348.3673 356.4877
47.38087 15.78289 349.5658 356.9761
47.41421 16.08408 349.812 356.8382
47.44754 16.04912 351.7373 357.45
47.48051 16.99196 352.6573 357.5405
47.51307 17.86508 352.6587 357.3134
47.54481 18.24752 353.0385 357.5435
47.57814 17.84469 354.9366 358.0328
47.61148 18.56302 356.5157 358.7654
47.64292 18.40501 357.9808 358.9395
47.67625 18.60433 358.4169 359.1325
47.70958 19.29416 359.3403 359.3126
47.74054 19.68989 0.46777 359.814
47.77388 20.36883 359.9728 359.6413
47.80453 20.54504 359.7115 359.683
47.83786 20.57991 359.3146 359.6327
47.86944 20.6241 0.1981089 0.1128028
47.90277 20.0752 1.081249 0.5605105
47.9361 20.55824 0.638855 0.3311139
47.96653 20.064 1.45662 0.2625542
47.99799 19.58554 2.101054 0.278182
48.03132 19.76242 2.944416 0.8327546
48.06466 19.92622 3.441551 1.448142
48.0957 19.92434 3.423572 1.477476
48.12797 19.03576 3.378284 1.502244
48.1613 19.8766 2.657466 1.433891
48.19248 20.02487 2.344682 1.371922
48.2224 19.14022 2.462398 1.246403
48.25514 19.19474 2.195723 1.23826
48.28662 19.77618 1.147159 0.5582221
48.31733 19.43523 1.393665 0.2085972
48.34999 19.33769 1.034739 0.3869371
48.38333 19.39765 359.9521 0.211459
48.41666 18.9659 358.38 0.0645668
48.44855 18.82119 356.2556 359.8703
48.48127 18.11234 354.0388 358.8086
48.51292 17.33044 353.0848 358.7288
48.54625 16.3233 352.7953 358.7017
48.57959 15.05605 352.7358 358.2149
48.61242 13.79908 352.988 357.9077
48.64388 13.57412 353.6602 358.3244
48.67722 13.68747 353.7586 358.7825
48.70885 13.13516 352.6358 358.0761
48.74038 13.16563 351.9993 358.3181
48.77372 12.95819 351.2314 357.784
48.80705 12.40911 350.6279 357.7979
48.83726 12.05777 349.8611 357.6363
48.87059 11.12101 348.6446 357.5125
48.90314 10.45163 347.1823 357.5019
48.93607 10.59295 345.9697 357.2278
48.9694 10.71936 344.665 356.9415
49.00274 10.86581 343.5194 356.6222
49.03607 11.17881 342.6111 356.4899
49.0694 11.09182 341.9572 356.392
49.10273 11.05453 341.2733 356.3267
49.13501 10.69122 341.1507 356.2239
49.1658 10.57458 340.6344 356.1597
49.19807 10.54341 340.5242 356.1321
49.23038 10.63425 339.8774 356.0913
49.26371 10.67587 339.6656 355.9269
49.29474 10.74282 339.3511 355.903
49.32673 10.52513 339.0965 355.8464
49.36006 10.57702 339.1825 356.1031
49.39339 10.65112 339.0874 355.9332
49.42387 10.8324 338.9727 355.9026
49.45597 10.90146 338.8176 355.834
49.48931 11.03402 338.9113 355.6946
49.52264 11.17703 338.6577 355.5226
49.55595 11.35271 338.2804 355.583
49.5865 11.24895 338.103 355.4586
49.61718 11.14106 338.0079 355.4856
49.6493 10.90276 337.7155 355.5142
49.68246 10.80237 337.787 355.5109
49.71296 10.71813 337.709 355.4861
49.74629 10.82636 337.8625 355.6217
49.77962 11.10028 338.1064 355.8337
49.81295 11.27688 338.5097 355.9154
49.84463 11.37395 339.3612 356.1697
49.87635 11.33167 339.9443 356.5059
49.90756 11.69747 340.5915 357.0197
49.93836 12.10566 341.5624 357.2138
49.96852 12.32546 342.9057 357.6126
50.00185 12.43378 344.4003 358.1173
50.03519 12.77281 345.4547 358.4456
50.06852 12.87261 346.2354 358.8492
50.10185 12.63577 346.9311 359.0231
50.13502 12.48857 347.6923 359.2203
50.16685 12.38789 347.8079 359.3149
50.20018 12.25869 348.1172 359.2419
50.23351 12.27266 348.3818 359.2777
50.26685 12.37433 348.5952 359.1357
50.29946 12.30998 348.5747 359.1122
50.33279 12.25206 348.4991 359.2764
50.36612 12.1357 348.3093 359.2391
50.39618 11.99185 348.1182 359.0945
50.42952 11.92005 347.8891 358.9811
50.46282 11.91237 347.5804 358.8363
50.49577 11.96293 347.2942 358.7643
50.52851 11.97686 347.0818 358.5357
50.56185 12.08374 346.8458 358.412
50.59518 12.00733 346.7517 358.3779
50.62851 11.9677 346.7317 358.4656
50.66185 12.14295 346.8454 358.4686
50.69264 12.3737 346.8726 358.2983
50.72528 12.39979 346.8506 358.3954
50.75861 12.38092 346.827 358.443
50.79194 12.45496 346.754 358.4371
50.82528 12.59681 346.367 358.1675
50.85764 12.6779 346.1332 358.2105
50.88892 12.71753 345.9418 358.1619
50.91932 12.92178 345.6667 358.0238
50.95266 13.16658 345.3216 357.9979
50.98599 13.17195 345.0806 357.9017
51.01668 13.05374 344.9131 357.6991
51.04712 13.09337 344.765 357.6003
51.07781 13.17832 344.6627 357.5982
51.10909 13.36106 344.3254 357.5232
51.14151 13.35332 344.2402 357.4326
51.17484 13.32825 344.3403 357.5203
51.20818 13.39108 344.5158 357.5254
51.24151 13.36902 344.5645 357.4741
51.27305 13.45805 344.5714 357.4107
51.30639 13.49888 344.4475 357.4084
51.33972 13.42651 344.3447 357.3681
51.3708 13.57103 344.209 357.254
51.40293 13.66814 344.0995 357.2111
51.4342 13.56771 343.9219 357.2587
51.46754 13.61076 343.7663 357.2028
51.49882 13.68346 343.75 357.2449
51.53215 13.64536 343.6714 357.2935
51.5634 13.68736 343.6084 357.2129
51.59363 13.73118 343.6008 357.2649
51.62696 13.64096 343.5498 357.2528
51.6603 13.73296 343.4724 357.2269
51.69208 13.78008 343.425 357.3781
51.72541 13.55318 343.4829 357.3127
51.75673 13.54255 343.5127 357.2693
51.79006 13.78664 343.452 357.2387
51.82339 13.78793 343.3576 357.4425
51.85555 13.65823 343.3146 357.3513
51.88886 13.62308 343.3178 357.444
51.92173 13.49784 343.2567 357.4042
51.95507 13.47222 343.0859 357.3127
51.9884 13.6071 342.9842 357.2446
52.01966 13.3863 342.8057 357.1908
52.05116 13.41813 342.8024 357.1378
52.08273 13.56615 342.782 357.105
52.11317 13.46941 342.7007 357.1568
52.14651 13.51703 342.4399 357.0571
52.17984 13.73195 342.1045 357.0201
52.21315 13.83257 341.3678 356.9394
52.24331 13.90444 339.8138 357.0702
52.27624 14.22377 337.4393 357.6307
52.30722 14.30999 335.1004 357.9342
52.33983 13.61251 331.7074 358.4286
52.37317 12.87761 327.8196 359.2255
52.40585 12.29406 323.726 359.1693
52.43594 11.38915 319.838 358.3384
52.46827 11.56308 315.5582 357.8378
52.50013 12.65749 311.399 356.9805
52.5312 13.75341 307.4905 355.1303
52.56453 14.00847 305.0302 354.2893
52.59787 13.46115 301.7962 354.2418
52.6312 12.65816 299.3523 354.0718
52.66183 13.05162 297.3567 353.8005
52.69516 13.80771 295.424 353.7299
52.72522 14.37504 292.9712 352.9712
52.75774 15.37231 290.7529 352.357
52.78895 16.38249 288.6419 352.0261
52.82128 16.78737 287.2048 351.6856
52.85461 17.20327 284.8151 350.8859
52.88728 17.87283 282.1559 350.5944
52.918 17.70509 279.541 350.3674
52.94878 17.51004 276.6736 350.1899
52.98211 17.93258 273.6514 349.2035
53.01544 18.16318 270.7139 348.0584
53.04482 17.68751 268.3326 347.8858
53.07815 16.90639 265.9215 347.8293
53.10927 16.26635 263.2589 346.7209
53.14145 15.41147 260.7421 345.7776
53.17252 14.95715 258.8203 345.5639
53.20585 14.34084 256.607 345.8134
53.23854 13.37402 254.3353 345.8171
53.27188 12.83157 252.9557 345.5854
53.3013 12.76915 252.0683 345.6223
53.33321 12.95758 251.8046 345.7091
53.36563 12.46047 252.4185 346.7735
53.39832 12.18214 253.3663 347.3726
53.43165 12.13939 254.9945 347.8211
53.46498 12.08932 257.6894 348.9052
53.49669 12.26503 260.0609 349.8402
53.52761 12.32379 261.666 350.6133
53.56094 11.88494 262.6187 351.1518
53.59321 11.66636 263.4651 351.5112
53.62598 11.53681 264.3036 351.7894
53.65803 11.58794 264.6638 352.0124
53.68988 11.37789 264.4011 352.0471
53.72062 11.41113 264.0294 351.775
53.75395 11.24338 263.8564 351.4893
53.78728 11.41262 264.1425 351.1818
53.82061 11.38114 264.8546 351.0011
53.85289 10.90826 265.0858 350.9664
53.8847 10.12529 265.6573 350.9576
53.91803 9.705934 266.4832 351.0825
53.94901 9.656177 268.5634 350.6512
53.98108 9.846568 270.1251 350.5096
54.0119 9.263984 273.7598 351.3057
54.04523 8.32743 277.8474 351.7282
54.07579 7.258877 282.3644 351.8411
54.10912 7.241475 288.0175 352.2222
54.14071 7.879426 294.2892 352.1975
54.17143 7.784757 299.0549 352.86
54.20232 7.293272 303.7522 353.6344
54.23566 7.508229 308.4149 353.9114
54.26899 7.713048 312.1371 353.8237
54.30127 8.845991 316.0197 353.9476
54.3346 9.866828 320.6121 353.6544
54.36793 10.59728 326.327 353.9267
54.40108 12.00084 332.121 354.0246
54.43441 14.02491 336.4964 353.6594
54.46775 17.23981 342.2829 353.4773
54.50108 20.64674 347.1984 352.8953
54.53122 25.96992 353.2147 352.5417
54.56455 33.18375 357.1907 350.9857
54.59689 40.27763 0.2267032 349.1164
54.63022 44.63488 3.49927 349.5066
54.66092 46.06276 5.64067 350.6368
54.69267 45.41873 6.652097 353.4424
54.72371 43.83841 4.599849 353.9803
54.75704 40.05928 1.624998 353.2248
54.79037 38.46728 357.0122 351.0535
54.82217 37.22748 353.6748 348.4732
54.85367 37.59951 353.7744 348.7667
54.887 36.20467 351.8588 346.6026
54.91842 39.0341 349.2935 344.1873
54.95176 39.43223 350.3794 344.1261
54.98509 34.76731 354.3609 346.5915
55.01842 31.20214 358.5064 349.5881
55.04921 29.66216 0.5737143 350.4134
55.08254 30.26777 2.446587 350.4504
55.11382 32.75808 2.657569 349.089
55.14577 34.97928 2.069849 348.1267
55.17911 37.24009 1.204131 346.9841
55.21097 41.42277 359.1989 344.4392
55.2443 48.26877 355.4045 339.9082
55.27763 59.61915 348.3625 335.2856
55.31097 68.01449 337.8645 328.9489
55.3422 39.79265 354.7515 342.8289
55.37553 43.40165 0.02432043 342.6145
55.408 45.65462 0.375067 341.4827
55.43833 45.18935 358.1065 338.7231
55.47022 44.14892 358.6364 338.5799
55.50253 38.97704 359.2799 338.6266
55.53373 36.08365 358.0252 337.5534
55.56707 33.23655 355.7466 336.1947
55.6004 26.60361 356.2185 335.9795
55.63374 19.83825 356.8976 336.8286
55.66707 9.804324 357.6793 339.8773
55.7004 4.927179 0.4881558 342.1153
55.73309 14.37458 359.8706 343.4753
55.76642 18.13859 356.5648 344.9628
55.79968 14.33101 357.9767 347.2372
55.83051 11.18431 359.5393 345.9577
55.86385 10.26193 0.006107301 345.8721
55.89605 11.54531 358.8435 346.3641
55.92939 13.31656 358.4979 346.589
55.96067 13.61423 358.6463 346.7725
55.99401 13.36898 359.0935 345.9431
56.02734 13.25321 358.6945 345.7987
56.05881 13.24988 358.4358 345.4844
56.0909 12.87388 358.0816 345.3942
56.12368 12.67722 357.8093 345.2925
56.15534 12.42791 357.4271 345.0461
56.18754 12.474 357.2957 344.7402
56.22061 12.28374 356.9603 344.5853
56.25103 12.23876 356.8627 344.7128
56.28294 12.46765 356.6506 344.7808
56.31627 12.61083 356.565 344.898
56.3496 12.46402 356.6596 345.1186
56.38169 12.45764 356.6575 345.0811
56.4124 12.50708 356.777 345.1452
56.44366 12.34042 356.7024 345.3239
56.477 12.4737 356.7896 345.4049
56.51033 12.35206 356.7224 345.4886
56.54179 12.37294 356.6642 345.6306
56.57513 12.26982 356.5892 345.926
56.60791 12.28401 356.5959 346.1698
56.64002 12.16175 356.4617 346.3703
56.67336 12.17285 356.5377 346.4672
56.70669 12.1201 356.4698 346.6244
56.73758 12.17371 356.3465 346.7058
56.77091 12.03362 356.1627 346.7486
56.80155 11.93408 355.9198 346.8308
56.83224 11.53464 355.6834 347.0806
56.86306 11.11286 355.5244 347.2463
56.89639 10.9231 355.6461 347.3009
56.92863 11.09053 355.5828 347.7459
56.96055 11.35813 355.5449 347.8708
56.99213 11.61336 355.7158 347.5508
57.02368 11.52172 355.8497 347.3141
57.05446 11.53756 355.7496 347.1036
57.08458 11.18846 355.4786 346.8535
57.11791 10.673 355.402 346.3376
57.15052 9.732653 355.3361 345.101
57.18386 9.401949 355.7298 344.3264
57.21549 9.493224 355.2489 344.8456
57.24882 9.681896 355.1667 345.554
57.28064 10.16314 355.1342 345.8358
57.31397 10.45014 355.2244 346.3502
57.3473 10.78819 355.4535 347.0061
57.38062 10.32045 355.2217 346.9781
57.41395 10.34277 355.7709 346.2798
57.44727 10.44762 356.2057 346.9023
57.47742 10.76821 356.9386 348.6135
57.50948 10.93842 357.4494 349.68
57.54246 11.00182 357.9367 350.1895
57.57384 10.89451 358.4081 350.5774
57.60415 10.81595 358.8757 350.7972
57.63748 10.86436 358.7262 350.3414
57.66868 10.93809 358.6027 350.4594
57.70201 11.01267 358.599 350.7697
57.73534 10.88299 358.3452 350.646
57.76538 10.95519 357.972 350.6159
57.79872 11.00774 357.7973 350.5093
57.83205 10.95153 357.6281 350.4398
57.86264 10.87311 357.5853 350.3216
57.89595 10.72076 357.6564 350.3414
57.92569 10.64226 357.786 350.4247
57.95691 10.61951 357.8539 350.4707
57.99024 10.61978 357.8571 350.442
58.02214 10.69298 357.8108 350.4268
58.05464 10.63246 357.8358 350.3336
58.08797 10.59544 357.7615 350.2085
58.12131 10.62766 357.7105 350.2484
58.15464 10.71428 357.7123 350.3617
58.18797 10.65433 357.7181 350.3302
58.22131 10.62514 357.7428 350.3901
58.25464 10.68943 357.8235 350.5441
58.28612 10.70475 357.8599 350.6918
58.31945 10.69873 357.9396 350.7285
58.35226 10.6929 357.9302 350.7219
58.38547 10.69287 357.9237 350.675
58.41708 10.74081 357.9171 350.6855
58.45042 10.79842 357.9073 350.6311
58.48375 10.78396 357.903 350.6024
58.51604 10.80771 357.9102 350.6107
58.54937 10.84499 357.9073 350.6754
58.58271 10.83813 357.9532 350.6906
58.61604 10.83649 357.9188 350.6511
58.64585 10.91064 357.9122 350.6944
58.67912 10.93104 357.8938 350.6695
58.71071 10.98123 357.8597 350.6567
58.74265 10.98133 357.8445 350.7478
58.77598 10.97178 357.8096 350.709
58.80931 10.95736 357.8335 350.7329
58.84264 10.98713 357.8845 350.7507
58.87598 10.95711 357.9567 350.7134
58.90704 10.9349 357.9419 350.7282
58.94038 10.9227 357.9238 350.7793
58.97247 10.93099 357.9139 350.6859
59.00385 10.89596 357.9188 350.671
59.03537 10.90105 357.8804 350.6715
59.06776 10.89791 357.816 350.6278
59.10097 10.91793 357.8321 350.6353
59.13165 10.96559 357.8343 350.5975
59.16214 10.90757 357.8378 350.4969
59.1936 10.87105 357.8207 350.4098
59.22364 10.79192 357.787 350.3115
59.25697 10.80603 357.7908 350.2553
59.28969 10.54686 357.9056 349.9579
59.31996 10.38476 358.0116 349.6561
59.35076 10.09343 358.0802 349.6624
59.38365 9.980245 358.0992 349.7678
59.41401 9.88803 357.779 350.3024
59.44668 9.90044 358.0878 350.7902
59.47651 9.73685 357.7223 351.1137
59.50653 9.290547 357.5308 351.0511
59.5365 9.569869 357.9465 350.3332
59.56819 9.968411 357.9663 349.9753
59.59858 10.18047 358.0139 350.3036
59.6294 10.0169 358.0604 350.5882
59.66207 9.950264 358.0539 350.616
59.69541 10.01089 358.0137 350.4947
59.72662 9.944221 358.0423 350.2071
59.75996 9.955627 357.9732 350.0874
59.7914 9.947469 357.7591 349.9661
59.82474 10.00561 357.6532 349.8368
59.85807 10.06361 357.6024 349.7198
59.8914 10.12211 357.6544 349.6827
59.92276 10.22422 357.7271 349.7248
59.9535 10.27446 357.7929 349.7279
59.98683 10.30709 357.8449 349.7496
60.02016 10.38408 357.8345 349.7946
60.05191 10.34462 357.7465 349.7483
60.08236 10.23816 357.6601 349.701
60.11335 10.17607 357.548 349.6661
60.14602 10.11056 357.4178 349.6057
60.1752 10.02516 357.3562 349.4935
60.20853 9.988747 357.3532 349.3747
60.24059 9.965256 357.3428 349.2199
60.27151 9.946421 357.3683 349.0621
60.3013 9.892691 357.4137 349.0317
60.33464 9.886456 357.432 349.105
60.3649 9.878775 357.4383 349.2489
60.39546 9.854011 357.4998 349.3502
60.42682 9.864231 357.6078 349.4072
60.45905 9.825077 357.6562 349.5269
60.49021 9.769033 357.7425 349.6948
60.52204 9.744083 357.7656 349.8307
60.5535 9.796793 357.7911 349.8724
60.58358 9.800092 357.8618 349.9382
60.61399 9.758861 357.8664 350.0544
60.6455 9.760573 357.8669 350.0964
60.67811 9.698294 357.8881 350.113
60.71144 9.659273 357.8682 350.106
60.74207 9.632041 357.8496 350.1131
60.77363 9.650948 357.8461 350.0951
60.80567 9.58066 357.8456 350.1154
60.839 9.527182 357.855 350.1357
60.87066 9.527452 357.8152 350.1531
60.904 9.525907 357.8165 350.1511
60.93733 9.521071 357.797 350.134
60.97066 9.512609 357.7719 350.1821
61.00367 9.500887 357.7654 350.2076
61.03556 9.492153 357.769 350.14
61.06889 9.494007 357.7737 350.1879
61.1013 9.482375 357.7986 350.194
61.13463 9.494055 357.813 350.1874
61.16796 9.455922 357.8169 350.2025
61.20129 9.455297 357.8058 350.2104
61.23092 9.460422 357.846 350.1783
61.26425 9.445891 357.8661 350.2074
61.29758 9.383428 357.8479 350.2453
61.32984 9.370747 357.8348 350.2791
61.36221 9.394941 357.8059 350.2777
61.39555 9.360742 357.8206 350.3148
61.42579 9.323605 357.8535 350.3303
61.45782 9.347456 357.8324 350.3575
61.49115 9.36447 357.8413 350.3421
61.52321 9.326116 357.8617 350.3612
61.55654 9.321806 357.8521 350.4223
61.58987 9.309134 357.841 350.3983
61.62098 9.314829 357.8473 350.3754
61.65431 9.279631 357.8243 350.3865
61.68764 9.30755 357.8214 350.3743
61.71853 9.299294 357.821 350.3535
61.75071 9.272931 357.8303 350.3632
61.78337 9.308252 357.8541 350.3806
61.81541 9.3107 357.8667 350.4218
61.84874 9.271693 357.8083 350.4262
61.88207 9.28847 357.8295 350.4273
61.91171 9.284284 357.8326 350.4125
61.94318 9.270574 357.841 350.4159
61.97612 9.270832 357.8423 350.4221
62.0084 9.290142 357.8542 350.4404
62.04173 9.278688 357.8521 350.4412
62.07237 9.27233 357.8306 350.4291
62.10565 9.25458 357.8083 350.4314
62.13898 9.236601 357.8377 350.4482
62.17231 9.221112 357.8453 350.4907
62.20565 9.275991 357.8472 350.4965
62.23721 9.261728 357.8521 350.496
62.27054 9.233058 357.8684 350.5278
62.30075 9.21182 357.866 350.5167
62.33408 9.212549 357.8296 350.4875
62.36552 9.1999 357.8091 350.4917
62.39762 9.188528 357.7942 350.4919
62.43096 9.186699 357.7679 350.4528
62.46429 9.258988 357.751 350.4438
62.49697 9.254862 357.7532 350.4323
62.52726 9.205795 357.7884 350.4999
62.56059 9.207132 357.7674 350.5496
62.59054 9.197521 357.7531 350.5132
62.62387 9.216277 357.7482 350.4268
62.65699 9.21498 357.726 350.3977
62.68718 9.23678 357.7634 350.3789
62.72052 9.233749 357.757 350.3742
62.75385 9.27949 357.7352 350.3419
62.78379 9.246763 357.7186 350.3148
62.81454 9.259748 357.6737 350.3196
62.84518 9.285918 357.6783 350.3488
62.87745 9.291827 357.67 350.3514
62.91079 9.299806 357.6667 350.335
62.94412 9.325261 357.6715 350.278
62.97745 9.369848 357.6803 350.2036
63.01078 9.335517 357.6971 350.232
63.04412 9.310591 357.6886 350.325
63.07356 9.305182 357.7234 350.3178
63.10564 9.338613 357.7644 350.3034
63.13897 9.402988 357.7813 350.2861
63.17053 9.377907 357.79 350.3284
63.20386 9.379046 357.7904 350.3358
63.23502 9.392718 357.7957 350.3479
63.26786 9.364855 357.8084 350.3575
63.29812 9.372971 357.8105 350.3524
63.33146 9.379071 357.789 350.3558
63.36479 9.394536 357.7937 350.3554
63.39779 9.334324 357.7909 350.3559
63.43112 9.373995 357.8147 350.3292
63.46184 9.387958 357.791 350.3344
63.49457 9.345524 357.9487 350.2651
63.52517 9.212035 358.0932 350.2841
63.55534 9.231697 358.1128 350.3091
63.58867 9.145677 358.2102 350.2431
63.61985 9.131644 358.2517 350.2345
63.65027 9.138421 358.2741 350.1669
63.68194 9.126409 358.3037 350.1717
63.71527 9.082427 358.324 350.1691
63.74772 9.093147 358.3088 350.1909
63.77882 9.075303 358.3172 350.1773
63.81215 9.080441 358.3058 350.1782
63.84194 9.101226 358.3708 350.2106
63.87527 9.066578 358.402 350.2462
63.90861 9.079681 358.4739 350.3499
63.94194 9.084539 358.4894 350.5272
63.973 9.044817 358.4156 350.5392
64.00633 9.053795 358.3259 350.4669
64.03967 9.085367 358.2465 350.3296
64.073 9.030793 358.196 350.2614
64.10419 8.987092 358.1953 350.1974
64.13658 8.991025 358.151 350.1187
64.16991 8.910363 358.182 350.0607
64.20035 8.980691 358.1843 350.1682
64.23368 8.99327 358.1749 350.2175
64.26701 9.041306 358.1771 350.3015
64.30035 8.999994 358.2199 350.295
64.33112 8.986514 358.2476 350.3181
64.36282 8.980014 358.2186 350.3181
64.39615 8.963558 358.2104 350.3463
64.42656 8.924709 358.1459 350.2973
64.45861 8.917136 358.1234 350.3289
64.4911 8.894581 358.09 350.3168
64.52104 8.869789 358.1348 350.2798
64.55438 8.891411 358.1363 350.2842
64.58712 8.863863 358.1562 350.2984
64.62045 8.857312 358.144 350.35
64.65339 8.835252 358.1078 350.3461
64.68662 8.817648 358.1362 350.3409
64.71996 8.835558 358.1325 350.3742
64.75266 8.799137 358.135 350.4014
64.78374 8.801498 358.1024 350.4028
64.81419 8.848082 358.1465 350.4067
64.84752 8.823594 358.1296 350.4048
64.88085 8.801179 358.1331 350.3888
64.91418 8.774725 358.1279 350.3864
64.94752 8.77602 358.0932 350.36
64.98085 8.688832 358.0795 350.3506
65.01418 8.670578 358.0696 350.5142
65.04752 8.787217 358.032 350.6022
65.08086 8.934363 358.0277 350.5445
65.11246 8.941872 357.9864 350.4973
65.14403 8.922822 357.9172 350.5437
65.17514 8.848971 357.9259 350.6762
65.20686 8.698869 357.931 350.671
65.24019 8.512007 357.9823 350.4609
65.27122 8.476593 358.0601 350.3906
65.30385 8.56675 358.0814 350.453
65.33659 8.648421 358.0959 350.4844
65.36922 8.67328 358.0531 350.4355
65.3997 8.729313 358.0501 350.4512
65.43124 8.703971 358.0695 350.5347
65.46457 8.690804 358.1493 350.7027
65.4979 8.649543 358.2916 350.9095
65.53074 8.636813 358.4603 351.094
65.56244 8.540892 358.6498 351.2895
65.59515 8.377499 358.7117 351.4547
65.62605 8.33983 358.5815 351.5794
65.65836 8.370729 358.4057 351.4941
65.68859 8.362819 358.271 351.3777
65.71973 8.400485 358.2301 351.2592
65.75306 8.44841 358.1155 351.0805
65.78545 8.538864 358.0456 350.9789
65.81798 8.519487 358.1028 350.9395
65.85131 8.407468 358.1687 351.0689
65.88396 8.410604 358.2201 351.2204
65.91541 8.364126 358.3038 351.1587
65.94856 8.297687 358.3282 351.1266
65.9819 8.328193 358.2935 351.1548
66.01378 8.316846 358.2859 351.168
66.0461 8.280526 358.2638 351.1432
66.07655 8.273065 358.2622 351.0855
66.10989 8.28942 358.2682 350.995
66.14199 8.265056 358.3033 350.9723
66.1732 8.201411 358.317 350.9943
66.20654 8.184136 358.3467 350.9828
66.23988 8.166558 358.3762 350.9289
66.27321 8.106757 358.3932 350.9313
66.30525 8.047239 358.4103 350.9612
66.33859 8.053039 358.3752 350.9551
66.37098 7.997212 358.4262 350.9437
66.40431 7.970717 358.4175 350.9849
66.43764 7.975145 358.4475 350.9797
66.47003 7.950806 358.4357 350.9133
66.50279 7.916177 358.4301 350.8546
66.53457 7.936198 358.4447 350.9043
66.56761 7.907722 358.4199 350.8953
66.60005 7.874363 358.4267 350.8855
66.63338 7.916462 358.4469 350.861
66.66647 7.925622 358.5014 350.8568
66.69981 7.881131 358.4898 350.9037
66.7318 7.873974 358.4365 350.953
66.76364 7.910239 358.4052 350.9068
66.79697 7.91749 358.3943 350.9136
66.82972 7.929241 358.3809 350.8994
66.86305 7.944439 358.3874 350.9069
66.8959 7.934949 358.3781 350.9188
66.92812 7.965279 358.3824 350.9145
66.95761 7.941797 358.3955 350.8732
66.99048 7.969961 358.4283 350.9015
67.02309 7.956357 358.3961 350.8685
67.05642 7.958287 358.3765 350.8635
67.08976 7.987613 358.3702 350.8521
67.12309 7.960998 358.3535 350.8771
67.15631 7.986863 358.3227 350.9308
67.18964 8.002934 358.3212 350.8853
67.22226 7.986412 358.313 350.913
67.25537 7.984904 358.324 350.9431
67.2887 7.992126 358.3617 350.9611
67.32204 7.999102 358.3369 350.9203
67.35208 8.006431 358.3124 350.9181
67.38541 7.998503 358.3033 350.9181
67.41771 8.013959 358.3261 350.9529
67.44793 8.022475 358.3308 350.9622
67.48126 8.039161 358.2946 350.9485
67.5146 8.027197 358.2882 350.9708
67.54689 7.996749 358.3107 350.9882
67.57972 7.968927 358.2881 351.0213
67.61305 7.982846 358.2836 351.0422
67.64454 7.956355 358.2459 351.0526
67.67549 7.989939 358.2093 351.0197
67.70685 7.981237 358.2081 350.968
67.74018 7.959096 358.1859 350.9911
67.77351 7.963109 358.1886 350.9999
67.80568 7.945305 358.2209 351.0181
67.83901 7.941075 358.2278 351.0398
67.87147 7.979928 358.1723 351.0364
67.90395 7.953787 358.1524 350.9922
67.93658 7.937089 358.1513 350.998
67.9698 7.937833 358.1265 350.9861
68.00313 7.908939 358.1157 350.9658
68.0332 7.931341 358.1144 350.9987
68.06653 7.930075 358.1386 351.0238
68.09986 7.91758 358.1378 351.0041
68.12983 7.918585 358.1216 351.0358
68.16316 7.924253 358.116 351.0231
68.1965 7.881806 358.1574 350.9782
68.22983 7.829134 358.1626 350.9798
68.26316 7.851282 358.1852 351.0226
68.29572 7.766458 358.1956 350.9455
68.32859 7.740273 358.2212 350.9165
68.36128 7.688259 358.2438 350.9041
68.39462 7.676736 358.2774 350.8827
68.42772 7.648477 358.2834 350.8849
68.46105 7.633571 358.2517 350.9198
68.49251 7.599599 358.3138 350.8911
68.52462 7.508053 358.3082 350.8168
68.55795 7.488603 358.3123 350.7653
68.59089 7.390634 358.2784 350.7647
68.62218 7.330946 358.2218 350.7117
68.65551 7.31091 358.1366 350.5279
68.68884 7.282692 358.1178 350.2567
68.72218 7.276049 357.9854 350.0553
68.75551 7.139219 357.9233 349.8564
68.7878 6.974954 357.9341 349.4553
68.81779 6.959966 357.9045 349.5146
68.85112 6.944803 357.9063 349.7223
68.8829 6.88506 357.9793 349.8864
68.91624 6.886275 358.1177 349.8434
68.94727 7.028031 358.117 349.9318
68.98061 7.164188 358.0539 350.1523
69.01031 7.377011 358.1807 350.5146
69.04308 7.386096 358.1154 350.8842
69.07642 7.116032 358.1558 351.4332
69.10971 6.362507 358.387 351.8283
69.14304 6.179252 358.652 352.2444
69.17384 6.160524 358.7061 352.7762
69.2045 6.118992 358.5088 352.6107
69.23662 6.113126 358.3727 352.2511
69.26655 6.131877 358.0589 352.146
69.29689 5.875447 357.7847 352.3989
69.32711 4.504068 357.692 352.8128
69.35852 4.654845 357.7912 353.5208
69.38846 4.801404 358.093 353.9402
69.42179 4.943625 358.3234 354.2311
69.45374 4.779295 358.3521 352.2677
69.48357 5.325804 358.7628 351.0964
69.51691 5.081085 357.4076 351.2903
69.55024 6.120329 1.296633 350.0793
69.58274 5.125584 4.975713 348.7278
69.61556 5.901243 5.902757 351.7699
69.6486 5.176558 7.913719 355.3103
69.68193 4.167954 8.479732 356.8124
69.71526 5.08701 9.618926 357.0339
69.7486 9.708961 6.173136 355.0909
69.77904 14.86373 4.221197 355.0635
69.81126 19.50129 2.808509 356.3099
69.8446 22.04495 1.219553 356.5788
69.87452 28.54232 359.5124 359.4933
69.90785 34.33486 359.9294 2.391349
69.94023 36.7187 0.72224 2.006391
69.97356 41.65373 1.806537 0.4451749
70.0069 50.21883 2.804004 358.4955
70.04023 55.39028 -0.0008669511 354.5986
70.07098 61.3363 358.1517 349.2528
70.10431 66.77443 354.8932 342.0815
70.13651 70.24589 348.3948 333.1165
70.16984 72.95645 328.4917 314.0585
70.20162 73.29924 312.4052 298.716
70.23495 71.07798 309.6358 296.2729
70.26652 69.70845 295.4465 285.0894
70.29889 66.38634 292.8272 282.5198
70.33147 68.39462 288.187 275.3213
70.36248 67.77976 285.4672 272.6231
70.39581 64.09704 285.8176 273.8869
70.42691 64.05067 283.4365 270.7413
70.45689 64.14965 283.3396 269.0379
70.48931 63.66001 279.2834 263.8342
70.52021 62.95672 276.4814 259.2333
70.55036 63.10953 276.6339 257.8948
70.58188 66.05579 276.5833 257.2749
70.61521 69.06419 279.4193 260.3931
70.6456 69.88763 287.6259 270.0155
70.67887 72.05281 301.4185 283.8527
70.71146 75.15567 318.0114 304.7797
70.74261 67.16647 340.6638 331.476
70.77469 62.10749 349.8824 342.7836
70.80802 57.74118 354.9294 349.6857
70.83965 52.45069 0.4787999 358.2191
70.87147 47.54345 2.472391 1.275413
70.90373 43.8283 1.667314 2.519008
70.9359 41.59808 1.467362 3.965231
70.96705 39.94332 3.061644 4.635311
71.00038 38.53931 4.225748 4.848264
71.03274 35.75594 2.367222 5.353126
71.06482 29.19442 0.7321276 6.936639
71.09815 19.9298 358.2302 6.979794
71.13148 13.13769 357.2452 5.981205
71.16482 3.944737 356.5955 4.105256
71.19815 3.642785 357.0187 4.343111
71.23052 12.21708 358.339 3.593024
71.2628 17.69036 0.1256807 1.108963
71.29562 17.52135 0.9341456 0.306543
71.32896 16.13196 357.9319 0.8710287
71.36179 13.73695 356.5256 2.962677
71.39472 12.1612 356.2584 3.42803
71.42805 11.60972 356.27 2.495303
71.4614 12.17681 356.7133 1.13869
71.49473 11.35464 357.5506 358.8744
71.52666 15.05477 358.0584 357.9196
71.55999 13.39182 354.6124 357.1014
71.59332 11.15034 351.5909 0.418128
71.62665 9.096744 348.7652 1.502185
71.65998 7.708703 347.1733 1.074596
71.69331 8.287879 345.8717 0.5667823
71.72665 9.438582 344.8097 359.9106
71.75935 10.41449 344.4818 359.8921
71.79269 11.04041 343.521 359.3995
71.82399 10.66537 342.3358 359.0811
71.85641 10.6561 340.6167 358.9093
71.88975 10.42693 338.6046 357.9628
71.92133 8.089313 336.5954 358.5059
71.95466 6.448043 334.7495 359.2708
71.9875 4.918551 334.722 358.9867
72.01762 3.344119 336.07 359.7863
72.04942 2.190423 337.5872 0.02282388
72.08276 2.147338 339.2157 0.2139512
72.11609 1.764582 341.1646 0.26572
72.14942 1.319301 342.8483 0.3761138
72.18071 1.582921 344.5295 0.6614124
72.21404 1.443901 345.7341 0.3282611
72.24738 0.5694399 349.1489 359.7543
72.27834 0.2112781 352.1496 359.5181
72.31056 1.64579 354.4801 358.3954
72.34389 2.67722 356.0559 358.4694
72.37723 3.771096 356.2976 359.7415
72.40736 4.991969 355.4672 0.4240744
72.44035 5.433642 354.3393 0.07005935
72.47368 5.691804 353.2212 359.9665
72.50701 6.685853 350.2148 0.4287828
72.53901 6.894672 346.1403 0.4854696
72.57234 6.758978 341.3761 0.4787714
72.60567 6.343076 336.4339 0.153766
72.63851 5.422506 331.247 359.5438
72.67184 4.406186 326.1253 359.1471
72.70518 2.821685 320.5878 358.1593
72.73851 1.60585 314.9961 357.3905
72.77185 0.6542902 308.7661 356.2981
72.80291 0.3083276 306.4523 355.5113
72.83624 0.2679867 305.3619 354.5273
72.86736 359.9145 304.8517 353.9585
72.89764 359.8957 304.8402 354.3161
72.93098 0.2789112 305.2542 354.8439
72.96431 0.2014684 306.4922 355.2913
72.99764 0.8488231 307.8604 355.7397
73.03051 2.089712 309.3947 355.9481
73.06255 2.436459 310.9183 356.1415
73.09267 2.924566 312.0068 356.9424
73.12601 3.735987 312.4481 357.6754
73.15934 4.292805 312.775 357.6034
73.18884 4.328763 313.3143 357.7982
73.22044 4.340274 313.3975 358.1779
73.25378 4.390416 313.1377 358.3444
73.28712 4.600605 312.8712 358.3685
73.31921 4.311275 312.4363 358.6424
73.35255 4.146446 311.7091 359.4109
73.3829 4.303188 311.1142 359.3114
73.41624 4.456525 310.6567 359.2301
73.44763 4.600924 310.1743 359.3617
73.48096 4.641713 309.8494 359.6432
73.51305 4.367423 309.4569 359.7039
73.54357 4.561416 309.0081 359.5886
73.5769 4.737046 308.733 359.3075
73.61024 4.927859 308.5186 359.0986
73.64357 5.074808 308.1655 358.9268
73.67634 5.590903 307.9897 359.1066
73.70967 5.70917 307.8947 358.8759
73.74108 5.783793 308.1149 358.8208
73.77441 5.792207 308.3925 358.8867
73.80775 5.986766 308.5758 358.9738
73.83956 6.343493 308.7275 358.7873
73.87289 6.531922 308.8321 358.7558
73.90623 6.597699 308.8207 358.7556
73.93956 6.787371 309.1153 358.5577
73.97066 6.855141 309.4949 358.5996
74.00166 7.01265 309.8795 358.7521
74.035 7.459231 310.6179 358.5806
74.06483 7.947673 311.8542 358.3316
74.09816 8.340733 313.3317 358.0724
74.13146 8.583909 314.7687 358.0595
74.16479 9.001525 316.1747 358.0138
74.19813 9.553488 317.3748 358.0587
74.23145 9.903387 318.4957 358.2258
74.26311 9.969253 319.7902 357.9687
74.29644 10.44868 321.0064 357.9825
74.3294 10.77551 321.7845 358.2269
74.36234 10.95269 322.3917 358.509
74.39453 11.07615 323.0885 358.8124
74.42716 11.15188 323.7573 358.9099
74.4566 11.40707 324.0818 358.8542
74.48994 11.5693 323.9613 358.7288
74.52309 11.6765 323.5135 358.4571
74.55642 11.79595 322.8188 358.153
74.58975 11.7114 321.9918 357.9252
74.62254 11.51763 321.0533 358.0596
74.65587 11.28976 320.0616 358.1466
74.6892 11.05648 318.6838 358.0032
74.72174 10.83081 317.6637 357.9546
74.75507 10.66043 316.6401 358.0386
74.78471 10.52989 315.5811 358.1125
74.81705 10.41763 314.7237 358.1808
74.84726 10.31972 314.2324 358.1957
74.87881 10.29102 314.0772 358.3302
74.91195 10.26815 313.926 358.6709
74.94315 10.41543 313.8895 358.7489
74.97566 10.55432 314.1223 358.584
75.00532 10.58295 314.4218 358.7805
75.03864 10.68483 314.5565 358.9084
75.07014 10.74255 314.5721 359.1361
75.10172 10.59607 314.5379 359.3773
75.13249 10.3802 314.5424 359.6474
75.16478 10.34478 314.5369 359.9414
75.19524 10.27563 314.3042 0.3559549
75.22761 10.1586 314.428 0.4018676
75.26094 10.22573 314.295 0.6307802
75.2919 10.30632 314.3022 0.5509744
75.32289 10.19762 314.2236 0.4420529
75.35471 10.29228 314.0982 0.3857512
75.38624 10.28796 314.0839 0.2415322
75.41957 10.21436 313.9654 0.2616172
75.45131 10.07991 313.9754 0.232702
75.48464 10.19629 314.0121 0.06381658
75.51797 10.2572 314.0898 0.0311691
75.55032 10.11555 314.1089 359.8377
75.58366 10.2437 314.1685 359.7835
75.61523 10.21111 314.239 359.6457
75.64769 10.09967 314.1754 359.7657
75.68102 10.07026 314.0336 359.807
75.71436 10.08303 314.1149 359.5483
75.74725 10.06153 314.2864 359.5377
75.77813 10.0634 314.4069 359.4657
75.80907 10.17246 314.5042 359.5685
75.84241 10.22178 314.5198 359.5518
75.87574 10.25248 314.5402 359.5986
75.90896 10.10719 314.5192 359.6015
75.94229 10.1005 314.5365 359.508
75.97529 10.23501 314.6272 359.4801
76.00862 10.24218 314.7191 359.4408
76.04195 10.33012 314.7657 359.447
76.07529 10.35036 314.821 359.1777
76.10862 10.32546 314.7623 359.0693
76.14195 10.2108 314.7833 359.1434
76.17493 10.19415 314.8164 359.0669
76.20826 10.29637 314.8647 359.0087
76.2416 10.42178 314.8893 358.955
76.27493 10.36975 314.8618 358.9153
76.30827 10.40968 314.8544 358.8339
76.3416 10.41202 314.8134 358.8329
76.37486 10.34179 314.5217 359.0908
76.40819 10.46836 314.46 359.1759
76.44078 10.5192 314.3026 359.1532
76.47226 10.40282 314.3745 359.0741
76.50559 10.46066 314.3473 359.0014
76.53893 10.71646 314.3196 358.9342
76.57226 10.7687 314.3354 358.8061
76.60559 10.83928 314.352 358.6736
76.6381 10.81764 314.4843 358.6616
76.66987 10.79132 314.5527 358.5879
76.7032 10.63801 314.6877 358.6436
76.73653 10.91615 314.7014 358.6044
76.76987 10.91374 314.9572 358.3672
76.80117 10.87914 315.0246 358.3686
76.8345 10.82869 315.0164 358.4354
76.86563 10.932 315.0471 358.4401
76.89896 10.9308 315.1837 358.337
76.92929 10.8259 315.2598 358.199
76.96262 10.95826 315.1279 358.1286
76.99596 11.12388 314.999 358.0885
77.02833 11.12462 314.9679 358.0524
77.0609 11.06072 315.0308 357.9128
77.09248 11.26907 315.177 357.8141
77.12534 11.27801 315.1328 357.7476
77.15759 11.34222 315.0876 357.7977
77.1881 11.38002 315.1812 357.7742
77.22143 11.23244 315.2308 357.8604
77.25476 11.2425 315.4042 357.5681
77.28809 11.64527 315.3267 357.4195
77.32119 11.6558 315.1887 357.5005
77.35452 11.48498 315.239 357.5077
77.38786 11.48759 315.2887 357.603
77.42072 11.3861 315.2316 357.6747
77.45405 11.46202 315.2661 357.558
77.48682 11.62369 315.3857 357.4042
77.5173 11.75275 315.104 357.7472
77.55026 11.64023 315.1043 357.7225
77.5836 11.5213 315.2741 357.7143
77.61693 11.57897 315.2481 357.6563
77.65026 11.54672 315.2628 357.6217
77.68359 11.59576 315.3992 357.604
77.71693 11.59771 315.4033 357.6028
77.7478 11.51289 315.446 357.657
77.77931 11.52548 315.477 357.695
77.81264 11.55436 315.5068 357.6609
77.84598 11.53013 315.5197 357.6846
77.87897 11.51478 315.5228 357.7994
77.91229 11.55834 315.5662 357.7562
77.94563 11.37337 315.7381 357.8023
77.97633 11.42565 315.7708 357.8447
78.00967 11.52514 315.6838 357.8142
78.04228 11.37197 315.7205 357.8393
78.07553 11.33749 315.7803 357.8964
78.10886 11.48302 315.7627 357.9446
78.14156 11.33593 315.8949 357.8848
78.17231 11.35317 315.9296 357.774
78.20547 11.42602 315.9234 357.7849
78.23633 11.48911 315.938 357.7465
78.26966 11.4701 316.0162 357.6762
78.30299 11.50572 316.0195 357.5883
78.33602 11.57398 315.9958 357.5654
78.36935 11.68345 316.0283 357.4445
78.40081 11.63464 316.1844 357.3466
78.43414 11.65595 316.218 357.3008
78.46748 11.74115 316.2112 357.2838
78.49833 11.71367 316.089 357.4928
78.53166 11.62722 316.1055 357.5941
78.56337 11.58605 316.0775 357.6952
78.5967 11.54132 316.2037 357.7072
78.62937 11.53429 316.3566 357.6924
78.6605 11.68784 316.4388 357.7085
78.69383 11.56247 316.4423 357.7729
78.72684 11.54561 316.5308 357.7738
78.75751 11.57484 316.4767 357.7522
78.79059 11.48547 316.3807 357.826
78.82354 11.49705 316.4019 357.7656
78.85687 11.5625 316.4047 357.6931
78.88929 11.6585 316.3993 357.6559
78.92262 11.60346 316.3774 357.6741
78.95307 11.5422 316.378 357.6792
78.98497 11.47283 316.3999 357.6769
79.017 11.47483 316.4094 357.7177
79.04751 11.54755 316.3943 357.6151
79.08084 11.62685 316.4104 357.5894
79.11367 11.63426 316.438 357.5543
79.147 11.59546 316.448 357.5584
79.17863 11.58848 316.4431 357.5304
79.21197 11.64384 316.5323 357.5322
79.2453 11.69433 316.4901 357.5173
79.27863 11.63392 316.4404 357.5528
79.31197 11.49937 316.3933 357.5598
79.34358 11.62622 316.3648 357.5383
79.37471 11.57424 316.3888 357.6438
79.40704 11.54931 316.4637 357.7968
79.43728 11.54845 316.4584 357.7795
79.46799 11.60136 316.4825 357.7475
79.50069 11.58562 316.5141 357.73
79.53127 11.47305 316.5311 357.7532
79.56461 11.40318 316.5625 357.726
79.59778 11.57209 316.6292 357.6602
79.63112 11.62927 316.6417 357.6147
79.66212 11.59372 316.5711 357.6491
79.69546 11.58047 316.5795 357.6111
79.72601 11.61591 316.5632 357.6127
79.75758 11.59179 316.5573 357.6656
79.79092 11.60014 316.5557 357.6308
79.82127 11.7304 316.4867 357.5371
79.8546 11.78667 316.4995 357.5597
79.88794 11.72697 316.5607 357.6147
79.92127 11.66228 316.5282 357.6409
79.95461 11.6906 316.5536 357.6078
79.98657 11.62386 316.5122 357.6383
80.01812 11.66753 316.4804 357.5941
80.05028 11.73237 316.5015 357.5404
80.08361 11.7682 316.4657 357.5621
80.11602 11.70794 316.2538 357.9405
80.14804 11.59977 316.2872 357.9044
80.18137 11.61518 316.3495 357.9014
80.21103 11.70483 316.292 357.8704
80.24326 11.6748 316.3066 357.8493
80.2766 11.60971 316.3501 357.8105
80.30993 11.6963 316.3961 357.7562
80.34203 11.74175 316.3713 357.7362
80.37536 11.67435 316.4032 357.7522
80.40653 11.77039 316.3527 357.7107
80.43775 11.76748 316.3612 357.6606
80.47034 11.76913 316.3475 357.5534
80.50149 11.87486 316.3295 357.5486
80.53326 11.80487 316.2929 357.5691
80.56469 11.70504 316.3536 357.5701
80.59802 11.75742 316.4043 357.5397
80.63136 11.80425 316.3429 357.4723
80.66469 11.8469 316.3224 357.4494
80.69739 11.82543 316.3185 357.4356
80.73072 11.69163 316.3553 357.485
80.76405 11.65652 316.3757 357.4485
80.79739 11.77522 316.3477 357.4248
80.83072 11.8508 316.3718 357.3838
80.86405 11.81805 316.4208 357.3784
80.89508 11.80041 316.4652 357.399
80.92624 11.78166 316.4391 357.4224
80.95957 11.72259 316.4489 357.4263
80.9929 11.78923 316.4911 357.3033
81.02449 11.91966 316.4876 357.2667
81.05633 11.88038 316.4672 357.2504
81.08966 11.8139 316.4841 357.263
81.12267 11.84941 316.43 357.2687
81.15537 11.89142 316.4574 357.2453
81.188 11.87283 316.4735 357.1763
81.22021 11.87665 316.4677 357.234
81.25289 11.9402 316.4831 357.2294
81.28273 11.96536 316.4283 357.151
81.31606 11.97934 316.4142 357.0989
81.3494 11.90475 316.4602 357.1048
81.37929 11.88002 316.4453 357.1062
81.41116 11.87951 316.4158 357.2159
81.4445 11.9088 316.456 357.1356
81.47626 11.90337 316.486 357.1092
81.50947 11.8067 316.5023 357.1472
81.5428 11.8534 316.5161 357.1755
81.5759 11.99514 316.4686 357.1285
81.60905 11.89153 316.5368 357.1705
81.64239 11.94595 316.5524 357.1758
81.67528 11.92825 316.6222 357.0455
81.70861 11.80256 316.5944 357.0695
81.74194 11.9384 316.5797 357.0286
81.77207 11.99163 316.5647 356.971
81.8054 11.93505 316.6016 357.0333
81.83767 11.91966 316.6219 357.027
81.86786 11.98098 316.612 356.9973
81.90119 11.91208 316.6167 356.8637
81.93452 11.96906 316.5 356.8627
81.96566 11.91149 316.3448 357.0703
81.99899 11.82071 316.4448 357.1153
82.03233 11.89456 316.5721 357.0412
82.06532 11.93685 316.5371 357.0423
82.09865 11.86058 316.5841 356.9834
82.13198 11.95786 316.4992 357.0107
82.16156 11.80011 316.4816 357.1596
82.19489 11.74442 316.5973 357.1399
82.22823 11.83731 316.6562 357.1135
82.26157 11.84629 316.5587 357.1297
82.29263 11.90666 316.5344 357.0874
82.32596 11.88455 316.5031 357.104
82.35676 11.79653 316.4254 357.1427
82.38819 11.81441 316.4375 357.0731
82.42008 11.83962 316.4826 357.0663
82.45309 11.88 316.5518 356.978
82.48642 11.99331 316.3493 357.2247
82.51804 11.9635 316.2552 357.2523
82.54868 11.91003 316.2341 357.1738
82.58189 11.92943 316.2563 357.0866
82.61522 11.91205 316.2164 357.1124
82.64618 11.85272 316.1374 357.0952
82.6774 11.93168 316.1683 357.0276
82.71073 11.93056 316.1931 357.05
82.74406 11.90346 316.1988 357.077
82.7774 11.86454 316.2896 357.1066
82.80992 11.88481 316.3245 357.0393
82.84225 11.87105 316.2681 357.0752
82.87424 11.93888 316.3178 357.0838
82.90674 11.88993 316.3588 356.9753
82.93977 11.9159 316.3206 357.019
82.9731 11.93794 316.3137 357.0113
83.00618 11.93431 316.3628 356.9918
83.03635 11.96993 316.3691 356.9382
83.06892 11.95043 316.3325 357.0231
83.10226 11.94581 316.2663 357.0038
83.13289 11.95221 316.346 356.8947
83.16622 12.00954 316.3683 356.8698
83.19888 12.05375 316.3029 356.8533
83.23222 11.98165 316.3141 356.8664
83.26331 11.94629 316.39 356.8761
83.29665 12.00163 316.3716 356.8181
83.32999 12.03095 316.387 356.8412
83.36332 11.95936 316.4391 356.8568
83.39665 11.99693 316.4629 356.9044
83.42718 11.99764 316.4042 356.8463
83.45917 11.9603 316.3815 356.8024
83.4925 11.96443 316.3868 356.7572
83.52258 11.89402 316.4059 356.8082
83.55591 11.84695 316.4633 356.7661
83.58759 11.89422 316.4954 356.6526
83.61976 11.95033 316.4616 356.5897
83.65309 11.92509 316.4532 356.5696
83.68461 11.91711 316.5209 356.5544
83.71703 11.9465 316.5583 356.5531
83.74844 11.9703 316.6245 356.5474
83.78177 11.92705 316.7237 356.4582
83.8129 11.93463 316.7489 356.3659
83.84624 11.998 316.7335 356.3166
83.87957 12.01286 316.7588 356.3335
83.9129 12.02618 316.7725 356.3543
83.94624 12.00671 316.8144 356.3193
83.97877 12.0514 316.8183 356.3984
84.00998 11.95843 316.7837 356.5364
84.04331 11.85664 316.7948 356.6505
84.07637 11.87361 316.8925 356.6021
84.10732 11.98066 316.8427 356.5004
84.14065 12.08155 316.8766 356.4396
84.17398 12.11599 316.8335 356.4292
84.20731 12.03824 316.8547 356.5263
84.24056 11.8922 316.9016 356.563
84.2739 11.94547 316.6637 356.8435
84.30665 12.08115 316.673 356.8123
84.33998 12.03616 316.6798 356.8259
84.37331 11.9967 316.7619 356.783
84.40619 11.95676 316.7604 356.786
84.43953 11.97921 316.7751 356.6992
84.47002 11.98759 316.8802 356.6313
84.50166 11.98289 316.8957 356.655
84.53499 12.04079 316.8846 356.5683
84.56641 12.16188 316.8534 356.4613
84.59664 12.13259 316.8008 356.466
84.62997 12.02573 316.8118 356.4793
84.66309 12.02305 316.7887 356.4819
84.69563 12.03312 316.5939 356.7671
84.7287 12.00688 316.5739 356.8162
84.75965 12.04102 316.6247 356.7362
84.79163 12.06097 316.7158 356.6696
84.82496 12.02508 316.5166 356.8571
84.85829 12.00821 316.4972 356.8821
84.88854 12.01295 316.5803 356.8019
84.92138 11.9676 316.6078 356.8206
84.95471 12.09577 316.6544 356.6523
84.98778 12.14043 316.6469 356.6569
85.02111 12.09292 316.6367 356.6927
85.05316 12.07832 316.7006 356.6689
85.08649 12.0286 316.7357 356.6122
85.11983 11.97903 316.8159 356.5815
85.15316 11.97857 316.9058 356.5121
85.18266 11.97044 316.996 356.4932
85.21599 11.98217 316.9448 356.4699
85.24932 12.00476 316.9861 356.3902
85.28114 12.0321 316.9972 356.4153
85.31448 11.94592 317.0395 356.4708
85.34782 11.92995 317.1022 356.5062
85.38115 11.94237 317.1749 356.4705
85.41348 11.8838 317.1601 356.5034
85.44681 11.71296 317.2526 356.4996
85.48014 11.79895 317.2653 356.4557
85.51218 11.92664 317.2088 356.3597
85.54316 11.89829 317.2034 356.4082
85.57642 11.90728 317.1875 356.44
85.6091 11.84134 317.2201 356.4737
85.64194 11.84142 317.2069 356.4304
85.67393 11.90275 317.236 356.2959
85.70727 11.94549 317.1964 356.3004
85.73953 11.92505 317.1879 356.3601
85.77154 11.8883 317.2381 356.3062
85.80488 11.80142 317.2633 356.3028
85.83821 11.93867 317.2155 356.2026
85.87096 11.98859 317.2389 356.0042
85.90282 11.99862 317.214 355.9131
85.93616 11.9441 317.2279 355.8486
85.96949 11.97286 317.2438 355.8492
86.00237 12.00067 317.2091 355.7918
86.03571 12.05282 317.1951 355.7703
86.06711 12.11131 317.2093 355.6843
86.09922 12.1736 316.9701 355.9018
86.13256 12.14445 317.0068 355.9207
86.16438 12.07105 316.9969 355.9922
86.19772 12.03139 316.9832 355.9682
86.22759 12.13332 316.9848 355.8134
86.2605 12.20617 316.9056 355.8377
86.29383 12.14116 316.883 355.8784
86.32716 12.0145 316.9388 355.8557
86.35902 12.00898 317.0651 355.7591
86.39235 12.07077 316.9384 355.7683
86.42568 12.13522 316.8808 355.805
86.4577 12.06287 316.9304 355.8122
86.48927 12.06049 316.9566 355.8125
86.5226 12.05728 316.9583 355.8238
86.55593 12.03446 317.0251 355.8136
86.58877 12.06605 317.1147 355.7282
86.61862 12.16929 317.0908 355.6132
86.65195 12.19359 317.0314 355.5795
86.68328 12.13335 317.078 355.5341
86.714 12.14715 317.0162 355.5614
86.74733 12.16282 316.9806 355.5802
86.77929 12.1766 316.9686 355.5745
86.81193 12.2107 316.9816 355.5459
86.84526 12.18939 316.9638 355.4927
86.87859 12.12602 316.7068 355.7564
86.91193 12.19126 316.7414 355.7267
86.94526 12.19177 316.73 355.6249
86.97784 12.23616 316.7342 355.5976
87.00966 12.15239 316.7566 355.6119
87.04299 12.19892 316.7932 355.4443
87.07632 12.33529 316.7614 355.3401
87.10966 12.3294 316.7205 355.4215
87.14298 12.27658 316.7747 355.4171
87.1742 12.27642 316.8181 355.4363
87.20486 12.20771 316.8051 355.4122
87.23801 12.25866 316.7982 355.3675
87.27134 12.23657 316.7854 355.2679
87.30468 12.24938 316.7755 355.244
87.33801 12.1962 316.7922 355.2761
87.37135 12.25118 316.808 355.218
87.40272 12.19638 316.8132 355.2144
87.43605 12.17469 316.8217 355.2021
87.46938 12.25713 316.8174 355.2006
87.50248 12.21487 316.8105 355.1917
87.53581 12.20374 316.8816 355.1393
87.56658 12.21613 316.8741 355.1754
87.59992 12.28026 316.8982 355.1399
87.63326 12.26771 316.9528 355.0947
87.66525 12.26008 316.8888 355.1331
87.69747 12.23393 316.907 355.1786
87.72876 12.27276 316.9367 355.112
87.75944 12.21964 316.9183 355.0807
87.79046 12.2574 317.0012 355.0176
87.821 12.29139 316.9908 355.0596
87.85433 12.18947 316.975 355.1742
87.88766 12.23279 317.0383 355.1871
87.92078 12.27298 317.0837 355.0928
87.95274 12.27061 317.1102 355.1302
87.98608 12.25659 317.1484 355.1135
88.01941 12.31082 317.1694 355.0168
88.05274 12.25136 316.928 355.2895
88.08607 12.36495 316.9505 355.2223
88.11941 12.35007 317.0054 355.1255
88.15255 12.35048 316.9943 355.0614
88.18475 12.39401 317.0023 354.9624
88.21773 12.46983 316.958 354.9222
88.2489 12.37342 316.9829 354.8765
88.28127 12.53444 317.0281 354.709
88.31442 12.50196 317.01 354.7775
88.34762 12.4439 317.0154 354.8804
88.38095 12.48053 317.0587 354.7649
88.41179 12.54463 317.0078 354.8297
88.44333 12.53733 317.0283 354.8573
88.47666 12.4264 317.0818 354.8205
88.50657 12.43916 317.0955 354.8014
88.53695 12.54774 317.0422 354.8372
88.56808 12.59928 317.0342 354.8818
88.59866 12.54434 317.1107 354.8504
88.632 12.53787 317.1225 354.8812
88.66482 12.4568 316.9144 355.2021
88.69472 12.48674 316.9426 355.0975
88.72806 12.5284 316.9429 354.9437
88.76089 12.5232 316.9916 354.9346
88.79104 12.55581 316.9792 354.8467
88.82437 12.61155 316.9651 354.7764
88.8577 12.58758 316.9942 354.7422
88.88931 12.53253 316.9626 354.7128
88.92264 12.55418 316.9831 354.6721
88.95442 12.57553 317.0197 354.6725
88.98775 12.6045 317.0186 354.6987
89.01912 12.59285 317.0398 354.6623
89.05149 12.59702 317.0149 354.6021
89.08483 12.49741 316.7875 354.8505
89.11816 12.47735 316.8481 354.9135
89.1515 12.51838 316.8919 354.9386
89.18483 12.50741 316.8296 354.991
89.21816 12.42444 316.8845 354.9443
89.2515 12.41841 316.9438 354.8747
89.28483 12.45075 316.8413 354.8342
89.3175 12.52288 316.8668 354.7749
89.34933 12.51745 316.9114 354.7812
89.38267 12.49607 316.951 354.8181
89.41379 12.50616 316.9795 354.7574
89.4451 12.50518 316.9832 354.7008
89.47843 12.47913 317.0263 354.6408
89.51176 12.56548 317.0231 354.5209
89.54424 12.56304 317.0012 354.5111
89.57552 12.46166 317.0421 354.5107
89.60697 12.48994 316.9928 354.4923
89.63841 12.42551 316.9846 354.5334
89.6697 12.39637 317.0406 354.5791
89.70135 12.48505 317.0653 354.5505
89.73419 12.47093 317.054 354.5668
89.76752 12.47732 317.0225 354.603
89.80008 12.475 316.9835 354.5756
89.83341 12.41035 316.974 354.5811
89.86674 12.43903 316.9875 354.6078
89.8982 12.48486 316.9848 354.6078
89.93153 12.38466 316.9596 354.6655
89.96306 12.42477 316.9458 354.7319
89.99639 12.45317 317.0198 354.6552
90.02972 12.41481 317.0642 354.6346
90.06068 12.53554 317.0457 354.5531
90.09216 12.59578 316.9704 354.569
90.12359 12.56655 317.0398 354.6016
90.15424 12.53095 317.1071 354.5352
90.18662 12.50029 317.0943 354.6197
90.21954 12.52463 317.0667 354.6425
90.2524 12.53484 317.0594 354.5946
90.28573 12.49231 317.0669 354.5945
90.31906 12.56115 317.0805 354.5403
90.35239 12.61523 317.021 354.5035
90.38573 12.5756 316.7508 354.7851
90.41906 12.51119 316.7803 354.8604
90.4483 12.44862 316.7705 354.9246
90.48048 12.42961 316.801 354.9256
90.51302 12.56266 316.8368 354.8884
90.54343 12.63522 316.8423 354.8718
90.57677 12.54984 316.9123 354.8609
90.6101 12.53919 316.9642 354.8663
90.64088 12.52782 316.9228 354.9481
90.67422 12.62034 316.9065 354.8969
90.70674 12.64256 316.9663 354.7514
90.73924 12.49091 316.7249 354.9304
90.77258 12.51254 316.6761 354.9522
90.80441 12.48386 316.6292 354.9442
90.83774 12.58486 316.6339 354.9618
90.87107 12.60485 316.7026 354.8627
90.90192 12.69072 316.674 354.8677
90.93501 12.62403 316.7816 354.8043
90.96835 12.55825 316.799 354.7418
91.00168 12.71685 316.7852 354.675
91.03362 12.78406 316.8115 354.5096
91.06381 12.77309 316.9335 354.4987
91.09715 12.81209 316.9625 354.5503
91.12769 12.81043 316.903 354.5565
91.16026 12.86109 316.9191 354.5817
91.19359 12.84925 316.9776 354.3708
91.22453 13.00517 317.0768 354.4017
91.25649 12.93651 317.0429 354.4145
91.28983 12.96769 317.0663 354.4323
91.32074 13.01761 317.0892 354.2966
91.35329 13.04043 317.0723 354.289
91.38385 13.04771 317.0727 354.2744
91.41575 13.10153 317.1644 354.1208
91.44701 13.07911 317.2227 354.1025
91.48034 13.03015 317.1867 354.1469
91.51367 13.18268 317.1902 354.0606
91.5444 13.20084 317.2768 354.1335
91.57462 13.2307 317.2628 354.1122
91.6077 13.27795 317.3445 354.033
91.64103 13.3345 317.3224 353.9669
91.67259 13.17849 317.1347 354.1977
91.70592 13.24856 317.1409 354.0987
91.73926 13.30847 317.1164 354.0607
91.77184 13.26035 317.1722 354.0694
91.80412 13.30496 317.0917 353.986
91.83746 13.33535 317.1349 353.9769
91.87079 13.27142 317.1908 353.9573
91.90412 13.34209 317.1849 353.9752
91.93693 13.39178 317.1351 353.9403
91.97026 13.27281 317.3246 353.9463
92.00359 13.37243 317.3387 353.9306
92.03693 13.41703 317.3051 353.9545
92.07026 13.37113 317.2971 353.9083
92.10359 13.39543 317.3274 353.8771
92.13692 13.44298 317.3211 353.8623
92.17026 13.4221 317.2972 353.9377
92.20359 13.41076 317.3949 353.9389
92.23632 13.41799 317.3116 353.8464
92.26965 13.47672 317.3329 353.8155
92.3005 13.47022 317.4038 353.7768
92.33383 13.5212 317.4279 353.7413
92.36609 13.53376 317.4664 353.7569
92.39942 13.59143 317.4409 353.7146
92.43071 13.54581 317.475 353.764
92.46404 13.49726 317.4545 353.8324
92.49629 13.50301 317.4451 353.8058
92.52962 13.48683 317.4272 353.8402
92.56271 13.41491 317.1881 354.1203
92.59177 13.34061 317.1955 354.1634
92.62489 13.37009 317.2238 354.0453
92.65822 13.38607 317.18 354.0141
92.68871 13.11439 316.4748 353.563
92.72112 13.1925 316.5632 353.622
92.75446 13.21978 316.6425 353.5964
92.78627 13.29431 316.6728 353.6553
92.8196 13.30674 316.7492 353.7451
92.85294 13.33496 316.8618 353.7596
92.88628 13.39454 317.0462 353.7596
92.91961 13.45553 317.2171 353.8401
92.95214 13.5225 317.6403 353.8536
92.98547 13.96352 318.5194 353.8801
93.01743 14.45766 320.0017 354.0792
93.04889 14.60801 322.3984 354.3852
93.07928 14.56407 324.9613 354.7047
93.11089 14.4255 326.7558 355.0545
93.14423 14.41696 328.9192 355.7438
93.17491 14.85692 330.9457 356.3549
93.20746 15.43352 332.8003 356.7673
93.2395 15.76593 334.8836 357.053
93.27254 16.0682 336.8075 357.0975
93.30587 16.799 338.6547 357.2037
93.33766 17.35385 340.2322 357.3351
93.36901 17.75056 341.5185 357.6576
93.40221 18.24278 342.3951 357.6875
93.43527 18.38968 342.9046 357.6608
93.46756 18.27468 343.0256 357.7995
93.50089 18.49888 342.7742 357.6844
93.5331 18.6867 342.5501 357.5533
93.56303 18.50872 342.2125 357.4666
93.59636 18.33042 341.9326 357.4005
93.62969 18.19154 341.4609 357.3169
93.66004 18.44631 340.9509 357.0352
93.69151 18.53507 340.6653 356.7839
93.72478 18.84309 340.5576 356.4705
93.75488 18.99995 340.4225 356.3915
93.78685 18.96233 340.2003 356.4717
93.81973 19.08849 339.9203 356.3066
93.85306 19.36469 339.7906 356.2009
93.88639 19.54952 339.6663 356.0788
93.91972 19.72152 339.5739 356.0204
93.95093 19.64119 339.5974 356.0802
93.98426 19.32517 339.5882 356.5677
94.01759 19.31867 339.5098 356.7148
94.04956 19.37572 339.4677 356.6674
94.08289 19.57052 339.4246 356.5647
94.11378 19.86653 339.4383 356.3874
94.14712 19.70764 339.529 356.6463
94.17985 19.74514 339.5725 356.6105
94.21136 19.89638 339.5237 356.4988
94.24469 19.80759 339.5124 356.4683
94.27802 19.86618 339.5217 356.3587
94.31136 20.07486 339.5594 356.1987
94.34156 20.10343 339.6603 356.1119
94.37254 20.14414 339.7169 356.0311
94.40587 20.16019 339.6826 355.8172
94.43681 20.25758 339.682 355.6868
94.4692 20.34781 339.6577 355.4706
94.49987 20.40669 339.679 355.3259
94.52975 20.44073 339.6178 355.2136
94.56203 20.53535 339.6202 355.0751
94.59537 20.64032 339.6292 354.9595
94.62553 20.56911 339.5696 354.9547
94.65887 20.59965 339.5934 354.9385
94.69221 20.55836 339.6307 354.9591
94.72276 20.7921 339.5027 354.8462
94.7536 20.66368 339.448 354.812
94.78693 20.5574 339.6607 355.0271
94.82027 20.42131 340.0691 355.3304
94.8536 20.3673 340.2715 355.3883
94.88693 20.49734 340.11 355.2095
94.91643 20.40985 339.8881 355.3023
94.94976 20.45919 339.9341 355.347
94.98131 20.54685 340.0188 355.3749
95.01151 20.58344 339.9411 355.2928
95.04485 20.58224 339.9624 355.3035
95.07679 20.61098 339.9072 355.3134
95.10796 20.64862 339.7817 355.2893
95.1413 20.76194 339.6655 355.1845
95.17323 20.79072 339.6117 355.1219
95.20332 20.80169 339.4727 355.0953
95.2355 20.84673 339.4158 354.9986
95.2685 20.83469 339.4703 354.9478
95.29807 20.893 339.3765 354.9186
95.33015 20.90373 339.2952 354.8051
95.36294 20.91339 339.336 354.8653
95.39555 21.06156 339.3197 354.8048
95.42889 21.09649 339.1339 354.7284
95.46223 20.88364 338.903 354.7436
95.49319 20.89293 338.4559 354.6142
95.52604 20.78065 337.8654 354.4701
95.55903 20.48124 336.8223 354.2692
95.58961 19.99885 335.3654 354.0308
95.62295 19.50969 333.817 354.1145
95.65427 19.26429 332.1296 354.022
95.68415 19.23304 330.7175 353.7044
95.71734 18.98743 329.7614 353.6064
95.74832 18.60526 329.6054 353.8372
95.77961 18.7346 329.6426 353.9189
95.81243 19.06255 330.1556 354.2091
95.84576 19.29094 330.6475 354.3473
95.87503 19.46956 331.3013 354.566
95.90836 19.36602 331.5774 354.9252
95.9417 19.0968 331.5589 355.2136
95.97281 19.0819 331.158 355.2359
96.00389 19.04819 330.7905 355.231
96.03426 18.94328 330.2809 355.1549
96.06511 18.78156 329.6124 355.0726
96.09647 18.31822 328.1904 355.2053
96.1298 17.85023 326.2388 355.4472
96.16069 17.13668 323.9716 355.7192
96.19159 16.47486 321.6471 355.7071
96.22492 15.97934 319.8775 355.8025
96.25826 15.49245 318.7658 355.925
96.29159 15.42628 318.2612 356.1626
96.32344 15.48918 318.0117 356.3363
96.35423 15.41502 317.8816 356.6603
96.38757 15.37964 318.0003 356.8228
96.42049 15.29737 317.4333 356.5378
96.45056 15.5352 317.7035 356.8
96.48389 15.45212 317.117 356.1788
96.51723 15.79879 317.9258 356.4706
96.54805 15.94627 318.3749 356.7585
96.58138 16.02952 318.8563 356.9183
96.61299 16.19585 319.2459 356.9345
96.64431 16.39082 319.3305 357.0941
96.67764 16.29489 319.2246 357.1647
96.71058 16.36161 319.2003 357.3
96.74378 16.41621 319.1877 357.3551
96.77621 15.47021 317.4306 355.947
96.80954 15.66959 317.3144 356.3348
96.84287 15.94477 317.1869 356.322
96.87289 16.23248 317.4014 356.3643
96.90619 16.24113 317.9771 356.6114
96.93634 16.10356 318.7325 356.5501
96.96828 16.21126 320.1066 356.6628
97.00064 16.42844 322.3335 356.7707
97.03123 16.73448 325.1283 357.1047
97.06205 16.6333 328.2775 357.615
97.09493 16.386 330.4196 358.159
97.12633 16.17108 333.5711 358.8165
97.15966 16.40203 336.5015 359.2931
97.18987 16.836 339.5081 359.8186
97.21986 17.32857 342.6949 359.68
97.25058 17.73586 345.0046 359.4076
97.28154 18.00957 347.0417 359.2728
97.3132 18.04515 348.458 359.4212
97.34438 18.30267 349.8782 359.6647
97.37553 18.88265 351.4838 359.5747
97.40592 19.20925 353.2789 359.6533
97.43862 19.4195 354.3409 359.7184
97.46889 19.80391 355.9449 359.7229
97.50076 19.91911 357.9176 0.08650371
97.53409 19.92616 359.6846 0.4554145
97.56742 20.40039 1.365307 0.4813413
97.59924 20.78165 2.911459 0.1344476
97.63247 20.7586 4.343681 359.9538
97.6658 20.69374 5.805793 359.8187
97.69562 21.16475 7.081676 359.3676
97.72895 21.9622 8.372311 359.2984
97.7612 22.48289 9.810393 359.391
97.79453 22.80501 11.67193 359.3076
97.82536 23.2441 13.56991 359.4449
97.8587 23.47702 15.20756 359.7903
97.89203 23.60881 17.51076 359.9463
97.92394 23.96369 19.04567 0.2179648
97.95728 24.73722 20.65635 0.1057756
97.99061 25.41836 22.41714 0.005268511
98.02394 25.64075 23.93013 0.4256402
98.05515 26.19931 25.10321 0.5017502
98.08848 26.65436 26.10003 0.4784792
98.12181 26.88264 26.6664 0.4707586
98.15453 27.32775 26.85462 0.6923957
98.18628 27.47193 27.00321 0.7046908
98.21921 27.29352 26.7375 0.2782043
98.25239 27.24036 26.2685 0.09077277
98.28454 27.31987 26.06108 0.03719641
98.31787 27.46252 25.76671 359.787
98.35066 27.8205 25.12927 359.4358
98.38377 28.03153 24.869 359.4378
98.41475 28.22631 24.68696 359.2385
98.44808 28.25502 24.53601 358.9804
98.48141 28.48454 24.20499 358.8282
98.51453 28.54628 24.18447 358.7872
98.547 28.5305 24.05932 358.8144
98.57776 28.51287 23.9332 358.8869
98.60909 28.46301 23.90039 358.8943
98.64187 28.4439 23.87199 358.9658
98.6752 28.63223 23.89946 359.1266
98.70815 28.54504 24.14215 359.3419
98.74148 28.45005 24.29772 359.3289
98.77481 28.67032 24.28502 359.3289
98.80564 28.67226 24.37207 359.4106
98.83897 28.62741 24.55701 359.5753
98.87125 28.75501 24.58385 359.4781
98.90356 28.65492 24.54688 359.429
98.93643 28.51658 24.46049 359.4368
98.96626 28.66397 24.41755 359.3913
98.99959 28.7833 24.35921 359.3217
99.03233 28.75504 24.43927 359.3498
99.0643 28.59462 24.61185 359.4022
99.09763 28.68791 24.70403 359.4035
99.13097 28.65385 24.75269 359.3078
99.1643 28.90377 24.88762 359.2078
99.19522 29.12315 25.03416 359.189
99.22855 29.0632 25.27047 359.2251
99.26105 28.89924 25.42167 359.2648
99.29118 29.18811 25.3725 359.1544
99.32441 29.16319 25.31622 359.1578
99.35541 29.15511 25.30456 359.2063
99.38874 29.20263 25.30705 359.0262
99.42207 29.01109 25.27221 358.9539
99.4549 28.94272 25.22639 359.0421
99.48693 29.00247 25.20177 359.021
99.51754 28.90784 25.34291 358.9543
99.55087 28.94084 25.29371 358.8839
99.58421 29.08451 25.39172 358.93
99.61721 29.15832 25.4742 358.9585
99.6482 29.18209 25.51244 358.9267
99.68153 29.15363 25.52019 359.027
99.71487 28.98068 25.51709 359.1103
99.74797 29.02734 25.59976 359.0372
99.77887 29.46651 25.49771 358.9942
99.8122 29.54196 25.48457 358.8691
99.84428 29.46012 25.59127 359.0004
99.87761 29.31438 25.51964 358.9701
99.90903 29.4701 25.4389 358.9773
99.94236 29.43058 25.41463 358.8892
99.9734 29.392 25.49248 358.8985
100.0067 29.49081 25.48472 358.931
100.0401 29.50553 25.4357 358.8495
100.0734 29.58451 25.52641 358.887
100.1067 29.65235 25.53265 358.7576
100.1401 29.68314 25.53168 358.695
100.1727 29.77291 25.43745 358.7278
100.206 29.72724 25.46479 358.6054
100.2392 29.79076 25.45636 358.5869
100.2725 30.12685 25.44132 358.55
100.3051 30.11957 25.41802 358.6514
100.3384 29.96118 25.42746 358.6255
100.3717 30.0697 25.46136 358.662
100.4047 30.19612 25.29506 358.567
100.4371 30.30959 25.35583 358.5843
100.468 30.28024 25.29641 358.5338
100.5013 30.29352 25.20277 358.4928
100.5347 30.21213 25.13573 358.5745
100.5667 30.09329 25.02687 358.4706
100.6 30.12923 24.85225 358.4312
100.6333 30.21199 24.47979 358.2676
100.6646 30.21324 24.14714 358.1817
100.698 30.31029 23.7146 357.9662
100.7306 30.31391 23.16301 358.1444
100.7621 30.25705 21.61918 358.1247
100.7925 29.78159 18.68501 357.8433
100.8258 28.71229 13.27145 356.5694
100.857 27.84024 8.077437 355.4244
100.8891 26.53978 2.995391 355.0873
100.9224 24.44743 359.041 354.6861
100.9558 23.02311 354.8351 353.5957
100.9874 22.65813 348.6135 352.4824
101.0182 22.17227 345.2637 352.0238
101.0516 21.1293 341.9009 351.7752
101.0829 20.46605 338.9767 351.6133
101.1133 20.40011 337.1087 351.9638
101.1447 20.07337 335.6617 351.4623
101.178 19.45525 334.9156 351.1118
101.2087 18.9734 335.4692 352.3864
101.2417 19.04433 335.3524 352.4435
101.275 18.90577 335.4916 352.455
101.3083 19.28691 335.8476 352.4084
101.3409 19.67336 336.4133 352.2555
101.3742 19.93765 337.0157 352.5555
101.4053 20.19924 337.6377 352.622
101.4372 20.51208 338.1921 352.7594
101.4706 20.55059 338.5714 352.9099
101.5039 20.58789 338.6336 353.0049
101.5372 20.64616 338.4377 353.2885
101.5698 20.57907 338.2296 353.4482
101.6024 20.3647 337.8604 353.3302
101.6357 20.14432 337.4617 353.5159
101.6688 20.09843 337.0732 353.526
101.7022 20.08865 336.8628 353.3881
101.7342 19.90393 336.5894 353.3396
101.7649 19.88049 336.4818 353.2802
101.7982 19.93391 336.4893 352.9699
101.8316 20.03618 336.5784 352.6015
101.8632 20.0563 336.7039 352.3961
101.8965 20.06016 336.9363 352.2576
101.9299 19.92043 337.0258 352.4286
101.9624 20.07496 336.9939 352.3555
101.9958 20.1159 337.2209 352.2435
102.0283 20.13234 337.4897 352.1797
102.0616 20.18273 337.6566 352.2108
102.0923 20.29545 337.5736 352.2705
102.1257 20.29798 337.5745 352.154
102.1586 20.28722 337.6858 351.8933
102.1918 20.35409 337.8397 351.749
102.2251 20.45494 337.651 351.7539
102.2585 20.31087 337.7328 351.6086
102.2886 20.41304 337.7304 351.6782
102.3219 20.5312 337.787 351.6352
102.3531 20.62973 337.9733 351.6261
102.3864 20.52792 338.048 351.623
102.4178 20.59899 337.9487 351.692
102.4511 20.62465 337.9731 351.5898
102.4834 20.61824 338.1575 351.5841
102.5165 20.57296 338.291 351.6159
102.5498 20.64883 338.2776 351.6709
102.5808 20.78294 338.3741 351.6291
102.6141 20.76307 338.4559 351.627
102.6474 20.67764 338.5727 351.6943
102.6765 20.70728 338.5374 351.6029
102.7098 20.74023 338.5818 351.4612
102.7403 20.90146 338.6504 351.3196
102.7737 20.96754 338.6501 351.2826
102.8052 21.01614 338.7307 351.2999
102.8385 21.02504 338.767 351.2326
102.8718 20.95768 338.765 351.2361
102.9027 20.8447 338.8378 351.2794
102.9346 20.88699 338.846 351.1737
102.968 20.9534 338.8238 351.1523
103.0013 20.92964 338.771 351.1316
103.0346 20.82071 338.8056 351.1199
103.0642 20.81812 338.8988 351.0914
103.0976 20.83342 338.8614 351.0786
103.1295 20.85504 338.8844 351.0336
103.1605 20.94739 338.8665 350.9836
103.1939 20.81039 338.8588 351.1016
103.2272 20.8961 338.8476 351.0322
103.2571 20.9664 338.8754 350.9831
103.2881 20.91165 338.8815 351.013
103.3196 20.87347 338.8931 350.9573
103.3496 21.04607 338.7706 350.8767
103.3823 21.00978 338.8211 350.7381
103.4156 20.88548 338.8274 350.8391
103.449 20.9045 338.8329 350.9942
103.4823 20.99985 339.0107 350.9505
103.5156 20.64778 339.7125 350.9147
103.549 20.47706 340.8681 351.1731
103.581 22.96867 343.3502 352.5619
103.6144 26.36944 345.5404 353.2282
103.6477 28.86816 347.4609 354.0089
103.681 32.84944 349.9843 354.1081
103.7144 35.6997 353.5143 355.0494
103.7465 39.14738 357.899 354.712
103.7779 41.44092 0.5376854 354.8392
103.8112 43.866 3.300341 356.196
103.8414 44.1288 7.464281 358.7899
103.8747 46.38137 8.461329 359.5783
103.9081 48.23706 8.383486 359.5962
103.9414 50.47286 7.762169 359.4032
103.9747 53.39867 7.56714 357.6361
104.0081 55.36262 6.978524 355.0358
104.0414 59.68721 2.241241 349.9071
104.0727 61.69561 358.1888 347.0836
104.106 62.51508 352.0605 342.1078
104.1358 63.38731 352.251 342.0164
104.1692 63.15715 352.1713 342.106
104.2025 66.24443 344.1221 334.3326
104.2348 71.83569 330.4505 319.9609
104.2664 76.2518 312.0794 300.9554
104.2988 75.19186 320.2575 307.8103
104.3294 71.05469 332.007 319.3226
104.3599 60.95397 342.2264 331.278
104.3927 59.60201 354.3111 345.4368
104.426 59.14817 358.6356 349.7477
104.4593 59.84083 357.7658 345.5491
104.4912 62.56044 358.6343 342.854
104.5234 62.39923 3.859762 343.7592
104.5567 61.27478 9.356761 346.5262
104.5901 63.30782 9.89297 346.1872
104.6234 69.6291 12.29475 348.5026
104.6567 65.32586 7.953994 346.8335
104.6901 57.85405 0.1545435 344.8788
104.7194 56.78586 359.8852 348.9658
104.7527 56.33252 4.931437 354.3043
104.7853 55.69593 9.04356 356.021
104.8186 51.41663 13.58163 357.4828
104.852 47.03489 13.8834 357.9608
104.8853 42.95838 13.168 356.8003
104.917 38.25314 11.38217 357.1422
104.9496 32.26468 10.74348 358.7079
104.9829 29.33653 10.17326 359.4407
105.0135 25.24248 5.849619 357.1662
105.0446 22.62004 3.645695 355.6329
105.0779 20.29865 1.508997 354.3469
105.1112 11.73399 359.3961 351.9145
105.1441 1.280508 358.379 350.2116
105.1756 0.1116375 354.0709 348.7346
105.2061 354.9335 352.0146 346.2188
105.2394 357.1297 348.8559 343.769
105.2728 6.384478 349.1351 346.2096
105.3061 5.408478 346.8523 346.8217
105.3394 5.160305 346.3558 346.274
105.3728 4.307835 347.6342 347.0824
105.4022 4.611453 348.3501 346.4894
105.4352 5.431102 349.1282 346.3488
105.4686 5.568311 348.6774 346.5785
105.4991 5.337579 348.535 346.6465
105.5319 5.365705 348.2085 346.2048
105.5652 5.468157 347.6685 345.1375
105.597 5.267063 346.9799 344.5128
105.6291 5.208338 346.4376 344.4209
105.6624 5.250748 345.7319 344.3076
105.6957 4.841706 345.3119 344.2794
105.7279 4.603484 345.0431 344.6231
105.7613 4.683926 344.873 345.2021
105.7925 4.639439 345.199 345.6362
105.8237 4.666508 345.4114 345.7572
105.8571 4.706809 345.787 345.7088
105.8878 4.92803 345.7477 346.067
105.9211 5.000129 345.9595 345.9725
105.9545 5.147346 346.2184 345.8379
105.9877 5.247044 346.4986 345.9968
106.0198 5.309818 346.7405 346.3179
106.0531 5.272308 346.7525 346.4949
106.0834 5.285047 346.7141 346.5927
106.1159 5.277586 346.7127 346.6227
106.1492 5.303542 346.751 346.5478
106.1799 4.254634 345.7342 345.7606
106.212 4.308614 345.7299 345.8255
106.2453 4.216453 345.7716 345.933
106.2771 4.299581 345.875 346.0762
106.3104 4.301001 345.9124 346.0878
106.3428 4.376074 346.0062 346.0338
106.3745 4.29993 345.974 345.9574
106.4056 4.359083 346.0462 345.9521
106.4379 4.43841 346.1409 345.964
106.4695 4.32747 346.1587 345.8999
106.5009 4.32807 346.1602 345.9214
106.5343 4.324379 346.2384 345.9801
106.5643 4.381127 346.283 346.0421
106.595 4.438621 346.3156 346.0695
106.6267 4.431122 346.3735 346.0478
106.658 4.528118 346.4983 346.0884
106.6914 4.64492 346.5978 346.0883
106.7247 4.673085 346.6238 346.0469
106.7547 4.587208 346.6485 346.0576
106.788 4.645862 346.6858 346.1124
106.8179 4.624414 346.7487 346.0547
106.8512 4.705591 346.7215 346.0137
106.8843 4.687404 346.7166 345.9229
106.9157 4.703427 346.6583 345.7621
106.9457 4.735369 346.7955 345.3823
106.9774 4.744451 346.784 345.0052
107.0098 4.59239 346.7522 345.072
107.041 4.435932 346.7708 345.04
107.0744 4.18985 346.8353 345.5397
107.1052 4.050534 346.8209 345.9299
107.1348 3.936374 346.9837 346.1706
107.1657 3.842493 346.9932 346.8766
107.1991 3.585165 346.962 347.3508
107.2313 3.402787 346.8258 347.8672
107.2647 3.426622 346.8255 347.6935
107.298 3.558173 346.812 347.2965
107.3313 3.57308 346.8914 346.9987
107.3638 3.509411 347.1285 346.9851
107.3971 3.567141 347.1154 347.1706
107.4273 3.671379 347.0719 347.4072
107.4606 3.650722 347.217 347.6262
107.494 3.542932 347.3392 347.7881
107.5245 3.541981 347.4172 347.7558
107.5574 3.559998 347.4305 347.4914
107.5907 3.670427 347.1797 347.1664
107.6212 3.916764 347.6638 346.5471
107.6546 3.817769 347.7828 346.6076
107.6879 3.860794 348.4385 346.6783
107.7182 4.00818 348.6203 347.4131
107.7506 3.993753 348.6055 347.7823
107.7825 3.727902 348.475 348.3228
107.8152 3.618633 348.8862 348.3795
107.8475 3.670141 349.5585 347.9351
107.8795 3.913902 349.931 347.5478
107.9128 3.8721 349.9695 347.4386
107.9461 3.700244 349.8501 348.0651
107.9795 3.511136 349.487 349.515
108.0128 3.204111 349.5664 349.1581
108.0435 3.44209 349.4966 349.1447
108.0752 3.467945 349.4473 349.346
108.1055 3.166019 349.3939 349.6902
108.1362 3.100915 349.4482 349.5226
108.1685 3.231321 349.4954 349.4271
108.2018 3.238941 349.4351 349.5983
108.2331 3.17255 349.5222 349.7516
108.2664 3.197338 349.4616 349.8042
108.2981 3.073748 349.5958 349.8773
108.3315 3.124974 349.6061 349.9856
108.3635 3.231019 349.6291 350.0457
108.3965 3.286572 349.6808 349.9183
108.4299 3.419578 349.8033 349.6743
108.4632 3.405226 349.9369 349.4627
108.4965 3.445269 350.264 349.2788
108.5264 3.415114 350.6214 349.8009
108.5583 3.402871 350.6516 350.2175
108.5882 3.341028 350.7296 350.5669
108.6192 3.186585 350.656 350.7846
108.6494 3.093285 350.5202 351.1612
108.6828 3.051236 350.477 351.3235
108.7149 3.039538 350.5062 351.3474
108.7483 3.093748 350.5688 351.3339
108.7816 3.018707 350.6058 351.4266
108.8149 3.041874 350.6917 351.4258
108.8483 3.102167 350.7274 351.4659
108.8816 3.132434 350.7903 351.4869
108.9149 3.155952 350.8069 351.5172
108.9477 3.177882 350.9189 351.5618
108.9811 3.192627 350.9673 351.6269
109.0144 3.245361 351.0408 351.6734
109.047 3.213725 351.0908 351.7659
109.0779 3.244561 351.218 351.8601
109.1098 3.249748 351.25 351.9227
109.1431 3.144779 351.2613 352.1821
109.1734 2.719681 351.3046 352.7369
109.2068 2.450068 351.3086 353.0421
109.2393 1.81074 351.7848 353.8742
109.2694 358.2404 351.4016 354.5777
109.3028 354.9878 352.0248 357.9868
109.3347 353.6396 353.6651 1.039442
109.3652 350.4383 353.1423 2.66944
109.3968 346.3792 352.0318 4.268175
109.4289 343.4001 351.9476 4.788187
109.4623 339.0865 351.821 5.797066
109.4938 335.5136 352.131 7.216315
109.5271 333.7226 352.6835 8.255195
109.559 334.157 353.7542 7.528492
109.59 336.7252 354.737 5.185023
109.6209 340.6476 355.9354 1.417823
109.6504 346.4254 355.2478 359.1018
109.6824 350.4148 355.1564 357.545
109.7124 355.6032 354.9485 354.2023
109.7426 359.399 353.3369 351.2436
109.776 2.020761 353.621 350.931
109.8078 6.063485 354.4503 351.9556
109.8391 11.66132 355.1761 352.8627
109.871 15.22802 355.7451 352.3731
109.9043 14.29113 355.9742 353.1543
109.9376 11.07932 358.5683 356.5903
109.9705 12.57076 0.6081926 357.3645
110.0032 16.64913 2.11463 358.7162
110.0365 22.50158 4.724775 1.029826
110.0699 28.88674 7.371636 3.607498
110.1032 34.45395 11.06767 6.523602
110.1365 35.62421 13.858 8.240023
110.1667 34.91682 16.38159 10.18016
110.1974 33.37294 18.31167 11.31719
110.2307 32.60955 19.75706 11.10315
110.2632 31.97098 20.67933 10.23227
110.2957 31.13976 21.23268 9.464909
110.328 30.07991 20.92424 7.83435
110.3581 28.61163 20.52662 6.574749
110.3898 26.96328 20.40622 6.247559
110.4191 24.73549 19.9256 5.477241
110.4508 22.75638 19.57728 3.778135
110.4802 21.55866 19.1299 2.431904
110.5096 20.30277 18.2281 1.744242
110.5419 19.58419 17.47683 1.076438
110.5719 19.19326 16.53702 359.6159
110.602 18.31048 15.16647 358.3291
110.6353 17.38613 14.86915 358.0262
110.6651 15.69197 14.21854 357.8667
110.6976 15.08318 13.71933 357.8778
110.7288 15.01649 13.32813 358.0851
110.7607 15.31372 12.82623 358.8371
110.7906 15.43933 12.36208 359.9845
110.8239 15.24294 11.95477 0.8232449
110.8566 15.14704 11.66041 1.024687
110.8874 14.84236 11.34551 1.184215
110.9187 15.00037 11.03261 1.15557
110.9514 15.08195 10.71897 0.963545
110.9801 15.36756 10.58266 0.6880924
111.0134 15.85095 10.29714 0.2083558
111.0467 16.24001 9.927126 359.4114
111.0761 16.653 9.481288 358.5553
111.1094 17.04388 8.887046 357.6956
111.1407 16.57723 8.021885 356.7514
111.17 15.74839 7.303982 355.9557
111.2012 15.07743 6.775608 355.3564
111.2333 14.64419 6.717137 354.9225
111.2662 13.60804 6.795165 353.8859
111.2982 12.19879 6.566309 352.9235
111.3311 11.49291 5.819634 352.6906
111.3644 12.00521 5.103702 353.3834
111.3949 12.9882 4.475648 354.519
111.426 13.24417 4.4093 355.6074
111.4565 13.15042 4.312955 355.854
111.4898 12.73813 4.109581 355.3154
111.5226 11.45541 3.895666 355.4617
111.5518 10.85977 3.905934 355.6371
111.5852 9.95695 3.958862 356.3917
111.6167 10.25281 3.849152 356.8481
111.6473 10.94085 3.597003 356.9508
111.68 11.29567 3.50263 356.9037
111.7123 11.17299 3.349702 356.5931
111.7438 11.09434 3.556225 356.3409
111.7772 11.31775 3.562229 356.4432
111.8099 11.39567 3.188008 356.4662
111.8416 11.39988 3.012135 356.3225
111.8749 11.78407 3.258689 355.7795
111.9077 12.33443 2.924605 354.8245
111.9379 12.06922 3.094011 355.2494
111.9713 12.05398 3.302603 355.5252
112.0046 12.3977 3.201552 355.7324
112.0379 12.66591 3.63882 356.6308
112.0713 12.41827 3.794053 357.2149
112.1046 12.19328 3.873449 356.4292
112.1348 12.3824 3.929395 355.8942
112.1677 12.50217 3.980445 355.993
112.1987 12.41253 3.899076 356.4193
112.232 9.748924 4.329733 355.2316
112.2654 6.818536 8.386896 355.2671
112.298 10.37948 7.746462 356.5274
112.3289 9.472545 8.512912 358.9853
112.3612 10.61719 6.378081 0.5456125
112.3945 12.62748 5.713604 0.2991915
112.4278 15.67758 6.144463 358.2899
112.4612 19.39903 5.144694 354.521
112.4945 21.0632 4.866088 353.8197
112.5248 21.3487 4.041059 354.5793
112.5557 21.89377 3.17753 355.2676
112.587 22.43649 3.496863 356.5776
112.6173 22.12007 3.989986 357.5083
112.6479 21.6487 3.838436 357.9073
112.6795 21.52921 3.921035 358.0085
112.7099 21.06266 4.097215 357.6265
112.7411 20.14909 4.196443 357.2793
112.7711 18.16742 4.456329 356.8501
112.801 16.68945 4.752312 356.8948
112.8316 15.57752 5.069661 356.6442
112.8647 13.14545 4.498383 355.1038
112.8955 10.36775 2.320891 352.9565
112.9288 9.818853 358.958 351.3168
112.9622 10.67076 354.9478 350.3177
112.9932 10.07463 351.3835 349.0905
113.0241 7.477539 346.3426 347.4156
113.0574 5.524866 340.0232 346.2571
113.089 3.600857 332.9496 345.0948
113.1204 2.158218 327.5019 344.1153
113.1511 0.1504253 323.5868 343.5781
113.1835 355.1254 319.5143 343.1796
113.2146 351.4176 317.2387 343.3179
113.246 349.6275 315.8624 343.1503
113.2791 351.4486 316.2869 343.9123
113.3125 354.0067 317.9576 345.9732
113.3458 353.7364 318.1166 347.1502
113.3772 353.2549 316.9505 346.3059
113.4085 353.4376 317.2262 346.8562
113.4408 353.2945 317.8423 346.366
113.472 352.5464 318.0272 345.0175
113.503 351.7392 318.0211 343.6456
113.5348 352.7822 317.6266 342.6506
113.5681 353.8209 317.676 343.101
113.5996 353.4084 317.4112 343.6176
113.6302 353.0632 316.5897 343.5686
113.6595 353.2307 316.7598 342.5076
113.6929 352.8927 317.3394 341.5714
113.7238 352.6194 317.437 341.7318
113.7569 352.8044 317.3751 341.426
113.7878 352.4232 317.1402 340.7559
113.8189 352.2753 316.679 340.6364
113.8497 352.2078 315.8352 340.6413
113.8812 351.8495 315.0751 340.5056
113.9121 351.9052 314.8189 340.6139
113.9415 351.8733 314.7041 341.1472
113.9734 352.0293 314.5842 341.6148
114.0067 352.1727 313.8933 342.6425
114.0368 352.6122 312.9142 344.414
114.0702 352.6833 311.5536 345.5439
114.1017 352.3583 310.2479 346.1699
114.1331 352.099 309.6687 346.2391
114.1665 351.1714 309.3041 345.1545
114.1998 350.3993 309.753 344.452
114.2331 350.3846 309.8748 344.9917
114.2664 350.8391 309.9513 345.4098
114.2998 351.3692 309.6381 345.9978
114.3307 351.7969 310.1097 346.0342
114.3629 351.8382 310.773 345.8925
114.3962 351.8864 311.3923 345.8526
114.4287 352.0732 311.6477 345.9065
114.4606 352.3344 311.9352 345.8788
114.4939 352.1362 312.1818 346.0883
114.5257 352.2468 312.3766 346.0341
114.5586 352.2093 312.1758 346.0748
114.5905 352.2872 312.1994 345.8964
114.6235 352.358 312.2084 345.8591
114.6565 352.3794 312.2334 345.9343
114.6898 352.4516 312.1957 345.9615
114.7205 352.1804 312.3457 346.1075
114.7538 352.2098 312.4061 346.0186
114.7852 352.1587 312.5273 345.8946
114.8151 352.0306 312.8183 345.4983
114.848 351.8555 313.0472 345.2095
114.8798 351.5427 313.3643 345.1537
114.9099 351.6928 313.309 345.2208
114.9426 351.7997 313.2703 345.1233
114.9759 351.7075 313.4436 344.8601
115.0039 351.7335 313.4307 344.9081
115.036 351.9195 313.3148 345.1622
115.0682 351.7454 313.3826 345.4557
115.0988 351.7569 313.3069 345.3055
115.1322 351.9271 313.1716 345.4707
115.1655 351.9826 313.0873 345.6621
115.196 352.0706 313.081 345.7182
115.2293 352.1199 313.1689 345.6528
115.2608 352.1269 313.2668 345.6027
115.2916 351.6572 313.2753 345.8913
115.3228 351.5251 313.1712 346.0313
115.3561 351.2958 313.1516 346.0566
115.3867 351.242 313.2864 346.0562
115.4192 351.2917 313.3146 345.9745
115.4495 351.324 313.2661 345.9043
115.4828 351.2051 313.1074 345.9171
115.5161 351.0877 313.2031 345.9601
115.5495 351.1166 313.1847 345.894
115.5828 350.9494 313.0449 345.9233
115.6161 350.9911 312.9822 345.8955
115.6495 351.0233 312.9541 345.8594
115.6828 351.1169 312.9372 345.7529
115.7161 351.2269 312.9673 345.7031
115.7486 351.5292 312.9345 345.7024
115.7819 351.5606 312.9788 345.703
115.8133 351.3776 313.1927 345.8356
115.8466 351.3405 313.2142 345.7776
115.8774 351.2935 313.4667 345.8979
115.9106 351.4359 313.4265 345.9331
115.9423 351.4918 313.5287 345.6052
115.9753 351.6193 313.5798 345.5237
116.0069 351.5308 313.8061 345.6681
116.0402 351.4917 313.8911 345.7179
116.0736 351.5779 313.95 345.7677
116.1053 351.6516 314.1672 345.8457
116.1386 351.6828 314.1245 345.9232
116.1704 351.8845 314.2569 345.9712
116.2037 352.0743 314.3981 346.0452
116.2349 351.1843 313.7206 346.3046
116.2661 351.2312 313.6409 345.9999
116.2994 351.1689 313.7118 346.0322
116.3314 351.1302 313.6596 346.0836
116.3648 351.0303 313.6663 346.1004
116.3972 351.1742 313.651 346.0156
116.4283 351.3363 313.7065 345.9527
116.4614 351.3787 313.7508 345.9691
116.4947 351.3029 313.8156 346.0013
116.5259 351.1875 313.242 345.8573
116.5553 351.2272 313.2233 345.8789
116.5886 351.3578 313.2081 345.822
116.6219 351.1071 313.1772 345.9305
116.6553 351.2005 313.2121 345.8369
116.6886 351.2977 313.2083 345.8102
116.7219 351.4697 313.2183 345.7626
116.7548 351.6188 313.2832 345.723
116.7882 351.7128 313.3243 345.7132
116.8215 351.6979 313.2777 345.7137
116.8548 351.8386 313.4609 345.7814
116.8882 351.9128 313.3892 345.7742
116.9215 352.0691 313.4393 345.8369
116.9548 352.0303 313.6312 345.9348
116.9882 352.1372 313.6314 345.9131
117.0206 352.224 313.6507 345.9606
117.0539 352.2737 313.6996 345.9878
117.0872 352.2957 313.7235 345.9858
117.1206 352.4027 313.7288 345.9719
117.1539 352.0783 313.8527 346.1852
117.1842 351.8867 313.9324 346.0885
117.2162 351.9577 313.9243 346.0519
117.2495 352.0137 313.8961 346.0538
117.2806 351.9929 314.0508 346.0837
117.3139 352.1126 313.9961 345.9863
117.3442 352.1269 314.0056 345.9723
117.3769 352.0183 314.2504 346.0895
117.4081 351.8515 314.3803 346.2122
117.4384 351.9786 314.3638 346.1432
117.469 352.0105 314.337 346.1314
117.5024 352.1287 314.3181 346.0775
117.5336 352.1968 314.2354 346.1009
117.5651 352.2614 314.25 346.1236
117.5962 352.1928 314.3102 346.1973
117.6273 352.1873 314.4033 346.3058
117.6606 352.263 314.403 346.2531
117.6924 352.302 314.3701 346.2793
117.7226 352.3753 314.3712 346.2924
117.756 352.475 314.3169 346.2756
117.7878 352.5187 314.2994 346.2651
117.8179 352.5676 314.2875 346.2841
117.8495 352.6954 314.2321 346.2706
117.8818 352.7119 314.1947 346.2952
117.9116 352.4484 314.3531 346.4788
117.9428 352.4247 314.2444 346.453
117.9732 352.3763 314.2624 346.4606
118.0035 352.2666 314.3022 346.5291
118.036 352.2056 314.2091 346.5392
118.0693 352.119 314.2722 346.6195
118.1 352.007 314.2831 346.6644
118.1312 352.0465 314.2781 346.6284
118.1646 352.114 314.2833 346.5821
118.1979 351.9354 314.3591 346.6326
118.2312 351.4352 313.7618 346.4227
118.2645 351.3056 313.9951 346.1988
118.2979 351.2731 314.2179 346.0049
118.3312 350.8664 314.2957 345.9066
118.3644 350.886 314.5511 345.4836
118.3962 350.6819 314.6669 345.5914
118.4283 350.9179 314.5652 345.6326
118.4597 350.986 314.5713 345.6831
118.493 350.9998 314.5863 345.6826
118.5249 351.0679 314.7487 345.7544
118.5574 351.0953 314.7318 345.842
118.5896 351.2311 314.7331 345.7849
118.6229 351.3737 314.5836 345.7958
118.656 351.3301 314.6006 345.9888
118.6893 351.114 314.7572 345.9818
118.7218 351.0877 314.9699 345.7996
118.7531 351.2539 314.9124 345.7831
118.7851 351.3608 314.7941 345.7795
118.8184 351.3186 314.8101 345.7993
118.8511 351.3812 314.7667 345.7927
118.8821 351.3694 314.7072 345.8478
118.9126 350.8979 313.9379 345.7637
118.9459 350.9994 313.9482 345.6638
118.9792 351.1416 314.0101 345.6985
119.0119 351.2935 313.9185 345.7459
119.0453 351.0964 314.0579 345.9265
119.0751 350.9976 314.371 346.0793
119.1085 351.0031 314.3796 346.0619
119.1418 350.5784 313.961 346.0766
119.1741 350.6143 314.0781 346.057
119.2074 350.5474 314.2512 346.1004
119.2407 350.6429 314.2613 346.1035
119.2705 350.7605 314.2753 346.0282
119.3026 350.8735 314.2649 345.9548
119.3359 350.8666 314.3551 346.0347
119.3654 350.9727 314.3609 346.006
119.3974 350.8307 314.4709 346.0996
119.4307 350.7614 314.4174 346.1375
119.4629 350.6447 314.5221 346.1512
119.4935 350.5978 314.5918 346.1487
119.5255 350.5614 314.7505 346.2306
119.556 350.4468 314.9332 346.3126
119.5889 350.5251 314.936 346.229
119.6222 350.6254 314.9419 346.1665
119.6526 350.718 314.9808 346.1713
119.6859 350.7873 314.9343 346.0962
119.7193 350.4995 314.2808 346.0031
119.7526 350.5829 314.3175 345.9488
119.7848 350.6861 314.3265 345.9345
119.8182 350.8516 314.3234 345.9036
119.8513 350.8472 314.3541 345.8896
119.8846 350.8049 314.6028 346.0411
119.918 350.856 314.5736 345.9929
119.9508 350.5244 313.9752 345.9956
119.9841 350.4574 314.1785 346.1067
120.0175 350.5524 314.1693 346.0502
120.0477 350.3503 313.7039 346.0024
120.081 350.4676 313.6635 345.9722
120.1143 350.5377 313.7003 345.9052
120.1471 350.4236 313.9557 345.9668
120.1805 350.5503 313.9928 345.9603
120.2129 350.6663 313.9821 345.9411
120.2436 350.8284 314.0572 345.8866
120.2769 350.7525 314.0193 345.9173
120.31 350.8512 314.0344 345.9396
120.3397 350.9263 314.0948 345.8912
120.3702 350.7537 314.1311 345.9786
120.4022 350.6057 314.3697 346.1202
120.4337 350.5471 314.5099 346.1888
120.467 350.7223 314.452 346.1018
120.4978 350.6146 314.7616 346.1258
120.5278 350.7659 314.7336 346.0536
120.5608 350.9571 314.748 346.0092
120.5941 350.8603 314.8958 345.8846
120.626 351.0385 314.8738 345.7903
120.6594 351.2252 314.8484 345.7614
120.6912 351.3387 314.8716 345.7783
120.7246 351.3955 314.8595 345.738
120.7579 351.526 314.8481 345.7335
120.7912 351.6162 314.8297 345.7407
120.8212 351.6721 314.8334 345.7057
120.8523 351.531 314.8688 345.8598
120.8842 351.5954 314.8612 345.8276
120.9153 351.6966 314.8612 345.8294
120.9475 351.8263 314.8984 345.7998
120.9808 351.881 314.9322 345.7792
121.0105 351.9698 314.8988 345.8058
121.0408 352.0299 314.9013 345.803
121.0718 352.0971 314.8842 345.833
121.1022 352.1709 314.8683 345.8218
121.1327 352.273 314.8948 345.8181
121.1626 352.2918 314.9195 345.8474
121.1945 352.2961 315.0916 346.0034
121.2278 352.2948 315.0953 346.0248
121.2612 352.3537 315.171 346.0751
121.2918 352.222 315.2573 346.2935
121.3222 352.1599 315.2977 346.3543
121.3531 352.2381 315.248 346.322
121.3825 352.3333 315.2065 346.2161
121.4137 352.3653 315.1894 346.2166
121.4445 352.4393 315.1617 346.1802
121.4772 352.505 315.1558 346.1536
121.5105 352.3932 315.2333 346.2061
121.5439 352.3446 315.2232 346.2649
121.5772 352.3153 315.2131 346.2589
121.6105 352.2182 315.2369 346.3277
121.6427 352.2975 315.2218 346.301
121.676 352.1569 315.2753 346.4081
121.7081 352.132 315.3413 346.3982
121.7414 352.0711 315.4194 346.4969
121.7748 352.0435 315.4788 346.5128
121.8081 351.971 315.4649 346.5515
121.8412 352.0593 315.4574 346.4544
121.8745 352.1501 315.4882 346.4504
121.9079 352.2584 315.4028 346.4184
121.9412 352.0962 315.4684 346.5763
121.9745 352.0497 315.4538 346.6124
122.0079 352.0936 315.483 346.6943
122.0412 352.1973 315.4343 346.5987
122.0738 352.284 315.4916 346.5834
122.1071 352.2421 315.4487 346.6163
122.1405 352.156 315.4673 346.6865
122.1738 352.1661 315.4729 346.6117
122.2071 352.2153 315.4007 346.577
122.2405 352.2536 315.431 346.3934
122.2724 352.322 315.3983 346.2923
122.3058 352.2625 315.4047 346.1892
122.3383 352.1752 315.4623 345.9383
122.371 352.0859 315.4896 345.7874
122.4043 351.9348 315.4307 345.7485
122.4357 351.7498 315.7195 345.4215
122.4655 351.707 315.8527 345.0232
122.4989 351.6185 315.4379 345.2931
122.53 351.7262 315.6895 345.6099
122.5633 351.6737 315.592 345.5364
122.5967 351.7212 315.6062 345.1824
122.63 351.5409 315.8188 345.0144
122.6613 351.4979 315.8968 344.8591
122.6946 351.5824 315.8917 344.9211
122.728 351.6407 315.8695 345.0163
122.7608 351.8664 316.1021 345.0361
122.7931 352.0761 316.3159 345.0977
122.8244 352.2653 316.5948 345.2031
122.8577 352.2884 316.8789 345.2243
122.891 352.338 316.9313 345.1477
122.9244 352.3372 316.9023 345.1727
122.956 352.3333 316.8473 345.0884
122.9878 352.3071 316.6135 344.9006
123.0212 352.1771 316.5113 344.8304
123.0545 352.1556 316.729 344.7645
123.0878 352.1304 316.7569 344.6096
123.1212 352.1779 316.8423 344.6019
123.1515 352.5093 316.8092 344.753
123.1827 352.8368 316.8747 344.9672
123.214 353.2392 316.8205 345.2072
123.2452 354.0398 316.7057 345.7723
123.277 354.502 316.6245 346.3091
123.308 354.7203 316.6764 346.4982
123.341 355.1685 316.6072 346.5922
123.3744 355.6916 316.5939 346.7201
123.4047 355.9861 316.5267 346.9738
123.438 356.381 316.3565 347.657
123.4714 357.1025 316.3266 348.0617
123.5047 357.3977 316.341 348.4464
123.5381 357.8788 316.5077 348.5336
123.5714 358.1083 316.3998 348.6769
123.6026 358.3902 316.1665 349.007
123.6346 358.8198 315.8588 349.032
123.6679 358.8049 315.3614 348.43
123.7002 357.6278 314.8906 347.377
123.7318 355.9999 314.6076 346.7489
123.7652 355.2215 314.5752 346.7399
123.7968 355.8419 315.0123 347.2868
123.8301 356.5768 315.5812 347.4813
123.8616 356.5793 315.6771 347.5739
123.8949 356.1038 315.3703 347.1026
123.9283 356.0858 314.9626 346.8277
123.9616 356.1862 314.4927 346.9363
123.9927 356.2306 314.0584 346.9627
124.0261 356.0017 313.8225 346.9951
124.0594 355.8761 313.5798 346.9791
124.0927 355.8213 313.0542 347.0935
124.1236 355.7152 312.5138 347.584
124.1553 355.7357 312.3028 347.8709
124.1887 355.6328 312.0573 347.9768
124.2193 355.2973 312.0342 348.2308
124.2526 355.3495 312.3213 348.0269
124.2851 355.5939 312.4849 347.6609
124.3149 355.7789 312.42 347.6377
124.3458 355.9341 312.1534 347.7012
124.3776 356.0526 312.0447 347.8608
124.4079 356.0979 312.0033 348.0114
124.4381 356.1868 311.9568 348.0501
124.4715 356.296 311.8232 347.9934
124.5048 356.3249 311.7955 347.9973
124.5381 356.2993 311.7789 348.0582
124.569 356.3737 311.7536 348.0308
124.5988 356.3765 311.74 348.0783
124.6308 356.4355 311.7878 348.0589
124.6623 356.4764 311.764 348.1194
124.6932 356.4522 311.7847 348.1346
124.7251 356.4806 311.7433 348.15
124.7583 356.528 311.6584 348.1159
124.7916 356.6036 311.563 348.1671
124.8249 356.6927 311.4091 348.1787
124.8582 356.6395 311.3223 348.0965
124.8915 356.619 311.2796 348.0847
124.9249 356.6665 311.2599 348.0502
124.9582 356.6932 311.209 348.0779
124.9877 356.6807 311.228 348.057
125.0211 356.7131 311.2932 348.1109
125.0525 356.7842 311.3337 348.1659
125.0844 356.8506 311.3859 348.2154
125.1174 356.8802 311.4357 348.2523
125.1493 356.8846 311.4204 348.2738
125.1819 356.932 311.4039 348.2724
125.2142 0 0 0
125.2463 0 0 0
125.276 0 0 0
125.3085 0 0 0
125.3418 0 0 0
125.372 0 0 0
125.4053 0 0 0
125.438 0 0 0
125.4713 0 0 0
125.5047 0 0 0
125.538 0 0 0
125.5679 0 0 0
125.6013 0 0 0
125.6346 0 0 0
125.6654 0 0 0
125.6987 0 0 0
125.7315 0 0 0
125.763 0 0 0
125.7963 0 0 0
125.8296 0 0 0
125.8599 0 0 0
125.8933 0 0 0
125.9266 0 0 0
125.9576 0 0 0
125.991 0 0 0
126.0243 0 0 0
126.0575 0 0 0
126.0885 0 0 0
126.1205 0 0 0
126.1506 0 0 0
126.1825 0 0 0
126.2158 0 0 0
126.2489 0 0 0
126.2822 0 0 0
126.3145 0 0 0
126.3443 0 0 0
126.3776 0 0 0
126.4085 0 0 0
126.4403 0 0 0
126.4719 0 0 0
126.5035 0 0 0
126.5369 0 0 0
126.5701 0 0 0
126.6034 0 0 0
126.6367 0 0 0
126.67 0 0 0
126.7034 0 0 0
126.7367 0 0 0
126.77 0 0 0
126.8002 0 0 0
126.8312 0 0 0
126.8626 0 0 0
126.8936 0 0 0
126.9269 0 0 0
126.96 0 0 0
126.9903 0 0 0
127.0205 0 0 0
127.0525 0 0 0
127.0824 0 0 0
127.1128 0 0 0
127.145 0 0 0
127.1783 0 0 0
127.2116 0 0 0
127.2449 0 0 0
127.2763 0 0 0
127.3064 0 0 0
127.3397 0 0 0
127.373 0 0 0
127.4036 0 0 0
127.437 0 0 0
127.4702 0 0 0
127.5034 0 0 0
127.5367 0 0 0
127.5701 0 0 0
127.6034 0 0 0
127.6343 0 0 0
127.6676 0 0 0
127.698 0 0 0
127.7313 0 0 0
127.7647 0 0 0
127.7977 0 0 0
127.8289 0 0 0
127.8606 0 0 0
127.8921 0 0 0
127.9254 0 0 0
127.9569 0 0 0
127.9874 0 0 0
128.0201 0 0 0
128.0515 0 0 0
128.0848 0 0 0
128.1166 0 0 0
128.148 0 0 0
128.1783 0 0 0
128.2116 0 0 0
128.2433 0 0 0
128.2727 0 0 0
128.3038 0 0 0
128.3371 0 0 0
128.3704 0 0 0
128.4033 0 0 0
128.4335 0 0 0
128.4635 0 0 0
128.4969 0 0 0
128.5302 0 0 0
128.5635 0 0 0
128.5969 0 0 0
128.6302 0 0 0
128.6635 0 0 0
128.6969 0 0 0
128.7296 0 0 0
128.7608 0 0 0
128.7942 0 0 0
128.8275 0 0 0
128.8608 0 0 0
128.8942 0 0 0
128.9275 0 0 0
128.9608 0 0 0
128.9942 0 0 0
129.0275 0 0 0
129.0595 0 0 0
129.0928 0 0 0
129.1261 0 0 0
129.1565 0 0 0
129.1885 0 0 0
129.2186 0 0 0
129.2479 0 0 0
129.2813 0 0 0
129.3146 0 0 0
129.3436 0 0 0
129.3768 0 0 0
129.4099 0 0 0
129.4432 0 0 0
129.4765 0 0 0
129.5098 0 0 0
129.5415 0 0 0
129.5748 0 0 0
129.6081 0 0 0
129.6414 0 0 0
129.6748 0 0 0
129.7081 0 0 0
129.7389 0 0 0
129.7722 0 0 0
129.8054 0 0 0
129.8361 0 0 0
129.8695 0 0 0
129.9003 0 0 0
129.9336 0 0 0
129.9669 0 0 0
130.0003 0 0 0
130.0302 0 0 0
130.0635 0 0 0
130.0968 0 0 0
130.1276 0 0 0
130.1575 0 0 0
130.1908 0 0 0
130.2202 0 0 0
130.2523 0 0 0
130.2857 0 0 0
130.3179 0 0 0
130.3512 0 0 0
130.3846 0 0 0
130.4155 0 0 0
130.4469 0 0 0
130.4795 0 0 0
130.5094 0 0 0
130.5427 0 0 0
130.5758 0 0 0
130.6088 0 0 0
130.6416 0 0 0
130.6728 0 0 0
130.7062 0 0 0
130.7386 0 0 0
130.7718 0 0 0
130.8026 0 0 0
130.836 0 0 0
130.8665 0 0 0
130.8999 0 0 0
130.9325 0 0 0
130.964 0 0 0
130.9962 0 0 0
131.0281 0 0 0
131.061 0 0 0
131.0942 0 0 0
131.1276 0 0 0
131.1599 0 0 0
131.1909 0 0 0
131.2243 0 0 0
131.2576 0 0 0
131.2875 0 0 0
131.3204 0 0 0
131.3537 0 0 0
131.3846 0 0 0
131.4179 0 0 0
131.4494 0 0 0
131.4792 0 0 0
131.5106 0 0 0
131.5426 0 0 0
131.5716 0 0 0
131.6049 0 0 0
131.6375 0 0 0
131.6708 0 0 0
131.7042 0 0 0
131.7345 0 0 0
131.7666 0 0 0
131.7995 0 0 0
131.8296 0 0 0
131.8593 0 0 0
131.8913 0 0 0
131.9223 0 0 0
131.9524 0 0 0
131.9835 0 0 0
132.0156 0 0 0
132.0489 0 0 0
132.0815 0 0 0
132.1148 0 0 0
132.1453 0 0 0
132.1786 0 0 0
132.212 0 0 0
132.2431 0 0 0
132.2764 0 0 0
132.3098 0 0 0
132.3431 0 0 0
132.3764 0 0 0
132.4074 0 0 0
132.4383 0 0 0
132.4714 0 0 0
132.5047 0 0 0
132.538 0 0 0
132.5714 0 0 0
132.6032 0 0 0
132.6343 0 0 0
132.6676 0 0 0
132.701 0 0 0
132.7298 0 0 0
132.7622 0 0 0
132.7956 0 0 0
132.8282 0 0 0
132.8596 0 0 0
132.8919 0 0 0
132.9252 0 0 0
132.9585 0 0 0
132.9919 0 0 0
133.0252 0 0 0
133.0585 0 0 0
133.0884 0 0 0
133.1212 0 0 0
133.1545 0 0 0
133.1869 0 0 0
133.2202 0 0 0
133.2535 0 0 0
133.2867 0 0 0
133.3176 0 0 0
133.3479 0 0 0
133.3813 0 0 0
133.4146 0 0 0
133.4455 0 0 0
133.4788 0 0 0
133.5105 0 0 0
133.5438 0 0 0
133.5771 0 0 0
133.6105 0 0 0
133.6438 0 0 0
133.6765 0 0 0
133.7098 0 0 0
133.7431 0 0 0
133.7765 0 0 0
133.8098 0 0 0
133.8431 0 0 0
133.8765 0 0 0
133.9098 0 0 0
133.9431 0 0 0
133.9746 0 0 0
134.0061 0 0 0
134.0394 0 0 0
134.0726 0 0 0
134.1031 0 0 0
134.1347 0 0 0
134.1665 0 0 0
134.1958 0 0 0
134.2291 0 0 0
134.2624 0 0 0
134.2941 0 0 0
134.327 0 0 0
134.3603 0 0 0
134.3915 0 0 0
134.4245 0 0 0
134.4578 0 0 0
134.4911 0 0 0
134.5215 0 0 0
134.5531 0 0 0
134.5865 0 0 0
134.6198 356.4972 307.9474 351.7252
134.653 357.2805 308.0851 351.5824
134.6835 357.3508 308.0736 351.8831
134.7169 357.4435 308.067 352.0335
134.7502 357.6454 307.95 352.1823
134.7835 357.6204 308.1685 352.0294
134.8169 357.2397 308.4563 351.6743
134.8477 357.1779 308.1093 351.8707
134.8791 357.2068 308.0767 351.9314
134.9125 357.2602 307.9063 352.0122
134.9458 357.168 307.8519 351.9417
134.9769 357.0346 307.734 351.9351
135.0095 357.0384 307.8775 351.8235
135.0395 357.0823 307.8499 351.7948
135.072 357.0839 307.8386 351.8067
135.1039 357.0802 307.7706 351.8941
135.1373 357.1211 307.7043 351.9031
135.1694 356.9254 307.6979 351.8034
135.2009 356.8374 307.5972 351.8635
135.2342 356.7567 307.4456 351.9431
135.2675 356.6713 307.3497 351.9451
135.3007 356.4985 307.2633 351.9816
135.334 356.2892 307.1333 351.9631
135.3674 355.2897 306.2022 352.07
135.4007 354.846 306.0083 352.4125
135.434 354.5422 305.8719 352.697
135.4674 354.3745 305.5549 353.0237
135.4979 353.9797 304.5547 353.4828
135.5303 354.7432 305.1216 352.2871
135.5624 354.6111 304.371 352.755
135.5957 354.6209 304.3325 353.4762
135.6291 354.0599 304.7076 354.3118
135.6595 353.5602 305.3893 354.2669
135.6928 353.3633 305.7724 354.3823
135.7226 353.411 306.037 353.9635
135.7528 353.6006 305.6094 353.6103
135.7844 353.9962 306.3812 352.3545
135.8177 354.7169 306.2563 352.1809
135.8502 354.5264 305.3944 352.4908
135.8832 353.6071 305.2783 353.1868
135.9156 353.0264 305.7947 352.5353
135.9489 352.7148 306.3783 351.4931
135.9822 348.4867 307.8119 354.4499
136.0145 347.7024 312.508 353.418
136.047 349.0946 312.2471 353.8589
136.0804 350.371 311.1708 351.766
136.113 351.4253 310.4273 349.2323
136.1441 353.2232 309.2953 345.8406
136.1765 353.854 310.5414 344.4304
136.2098 353.156 311.4705 342.083
136.2431 356.1416 311.0102 338.6113
136.2765 4.104631 309.9378 332.502
136.3098 8.822407 304.1576 326.5372
136.3411 12.7389 297.6631 315.3339
136.3745 17.96124 298.9108 309.4563
136.4075 23.27294 301.7957 305.3061
136.4408 25.35265 300.6701 300.2439
136.4741 28.16413 293.9909 292.7368
136.5075 28.10239 289.1717 288.2363
136.5404 29.40515 287.8156 286.8247
136.5737 31.20782 285.894 284.591
136.6071 31.66354 281.3026 282.7943
136.6404 33.74207 277.8952 280.4363
136.6729 35.45552 276.6566 280.5768
136.7054 35.67189 273.3934 277.644
136.7377 36.67319 270.4431 273.5191
136.7701 37.3404 269.4859 271.2729
136.8016 37.69533 268.0694 269.4329
136.8338 37.64622 265.2959 267.0837
136.8671 39.4076 264.5158 267.957
136.9005 42.28662 266.3526 271.2747
136.9338 43.88013 263.9681 268.0172
136.965 45.78944 260.1428 263.0054
136.9966 46.64524 257.4519 259.1071
137.0299 48.28228 257.2722 257.9399
137.0632 50.26298 257.7499 257.4871
137.0966 51.99857 256.856 255.0869
137.1261 52.46119 255.6219 254.6258
137.1585 52.86607 254.4663 254.0425
137.1911 53.38934 253.8354 253.6048
137.2238 54.38823 254.1498 254.0589
137.2553 55.95634 255.0682 255.5191
137.2887 57.75581 257.2248 258.1334
137.3213 58.18562 258.9894 260.1846
137.3527 60.09229 260.4688 261.8124
137.3849 62.59357 257.9227 260.1958
137.4165 64.48213 260.9283 263.1169
137.4475 65.87873 257.876 260.2692
137.4808 66.15752 254.9725 256.6065
137.512 66.00588 252.6614 251.3282
137.5446 65.73695 255.6747 252.5449
137.5766 67.66181 258.4149 255.4758
137.609 72.6314 260.1378 258.1631
137.6415 75.9293 266.5155 263.852
137.6748 76.9786 286.0614 282.7189
137.7081 76.85062 307.5401 305.6649
137.74 72.63702 330.5381 329.0527
137.7733 66.99973 341.8361 340.4047
137.8067 62.25211 346.2805 345.6913
137.84 57.41812 349.9413 350.0445
137.8733 48.0336 354.1671 355.6579
137.9067 39.82435 354.0308 357.745
137.94 31.9136 354.5395 0.3675198
137.9728 22.87503 356.3902 2.211726
138.0062 17.51004 356.9466 1.149483
138.0381 16.53056 359.3633 2.273632
138.0708 19.44385 1.051138 3.435477
138.1032 22.26878 0.813761 1.443576
138.1349 22.9818 1.428591 1.113857
138.1682 21.9842 1.572478 1.013891
138.2016 19.54942 2.197602 1.605002
138.2349 17.32488 1.483106 2.500346
138.2682 15.00323 359.9393 1.86336
138.3016 14.68314 359.2187 2.897112
138.3345 13.19109 357.7263 2.965178
138.3678 11.90235 356.9536 4.274503
138.399 10.22972 355.9454 4.541027
138.4315 10.2539 356.1051 4.16884
138.4649 9.837046 356.8101 3.723664
138.4967 9.80436 357.6855 3.41885
138.5301 9.493934 359.0536 2.478065
138.5606 8.059069 359.9677 1.679272
138.592 6.019086 359.746 2.112569
138.6254 4.261284 359.7614 2.873853
138.6587 2.516479 359.3329 3.34607
138.6909 1.07425 359.0748 4.176914
138.7232 0.4253659 358.8022 4.615446
138.7565 0.3985122 358.5682 5.122609
138.7898 1.441272 358.0594 4.649913
138.8226 2.538482 358.7744 3.625829
138.856 4.281181 358.2637 4.038725
138.8868 6.413979 357.8187 3.689658
138.9202 8.771203 357.0522 2.833731
138.9524 9.337178 356.8873 2.693389
138.9843 8.893709 356.3737 2.96281
139.0177 8.527645 355.988 3.151492
139.0507 8.553492 355.5891 3.373695
139.084 9.015235 355.5207 3.654332
139.1147 9.646626 355.12 3.377977
139.148 10.20072 354.6955 2.861955
139.1814 11.0337 354.4602 2.147116
139.2127 11.21274 354.5592 2.099847
139.246 10.78466 354.6397 2.406154
139.2794 9.909389 354.7558 2.819402
139.3127 9.169824 354.726 2.255507
139.3456 9.226904 354.49 2.239761
139.379 8.683389 354.2016 2.248571
139.4099 8.648633 353.8218 2.235213
139.4425 7.902017 353.6654 2.344203
139.4758 6.573105 353.9853 1.9855
139.5092 3.742271 354.4197 1.733339
139.5425 2.227004 354.1415 1.797286
139.573 1.448712 354.0067 2.203304
139.6058 1.250102 354.1339 2.381823
139.6391 1.494895 354.2314 2.371311
139.671 1.925641 354.4456 2.417159
139.7039 1.947424 354.7694 2.158229
139.7372 2.239416 355.1322 1.686721
139.7684 3.063479 356.101 1.598664
139.8015 3.948498 357.9942 1.716008
139.8349 4.652673 0.7176955 1.13479
139.8682 5.187177 4.419362 0.8846417
139.9015 5.277396 8.965402 0.6555148
139.9349 3.932955 13.92121 0.3903897
139.9682 3.453282 16.17683 0.9796129
140.0015 4.181677 16.77178 1.345291
140.0334 4.165437 17.14379 1.868975
140.0656 4.267357 16.87499 1.762938
140.0989 4.66359 16.10185 0.8494037
140.1322 4.304758 14.9909 0.416074
140.1656 4.227324 13.20327 0.723492
140.1989 4.170808 10.55823 0.5003112
140.2322 3.926511 7.548109 359.6271
140.2647 4.154255 4.360806 359.8055
140.298 4.80004 1.282687 359.9659
140.3313 4.883177 358.2062 359.8033
140.3626 4.969705 354.7052 359.7022
140.3947 4.643168 351.4636 359.2269
140.428 4.161448 348.6073 358.5854
140.4608 4.351475 346.0939 358.3787
140.4928 4.0073 343.9038 358.3891
140.5261 4.119313 342.2321 358.495
140.5594 4.285646 341.0101 358.2433
140.5914 5.004472 340.0629 358.2586
140.6223 5.58224 339.197 357.9908
140.654 5.633203 338.2904 357.7576
140.6873 5.934798 337.1734 358.1682
140.7201 5.816489 335.8896 357.9442
140.7522 5.776895 334.6393 357.7717
140.7843 5.625978 332.9133 357.8308
140.8162 5.473569 330.7396 357.6995
140.8482 5.569356 328.9192 357.7374
140.8815 5.557901 326.7139 358.0912
140.913 6.46645 324.9338 357.4615
140.946 6.168458 323.8873 357.8843
140.9769 5.96426 322.4323 358.342
141.0103 5.798268 321.0014 358.4701
141.0406 5.66379 319.5674 358.397
141.0733 5.867736 318.6373 358.5136
141.1066 6.191832 317.8332 358.5056
141.1393 5.981914 317.058 358.4655
141.1726 5.843062 316.2972 358.5003
141.2059 5.288646 315.7145 358.8325
141.2382 5.815468 315.4931 358.8235
141.2715 5.453603 315.5831 358.8823
141.3031 5.117539 315.3192 359.4544
141.3364 5.172234 315.1177 0.5666566
141.3697 5.387682 315.3423 0.9535374
141.4031 5.148549 315.3822 1.3216
141.4364 4.972413 315.1847 2.057453
141.4675 5.534055 315.1644 2.520424
141.4996 5.787375 315.0577 2.703476
141.5303 5.934462 315.2316 2.921518
141.5614 6.131483 315.456 2.939973
141.5946 5.962215 315.5941 2.822569
141.6255 5.807991 315.6837 3.014348
141.6589 5.798635 315.8741 3.375664
141.6906 5.789767 316.1075 3.369737
141.72 5.859555 316.224 3.387976
141.7534 5.882286 316.1437 3.450431
141.7861 6.028168 315.8039 3.742527
141.8194 6.107989 315.4979 3.642615
141.8527 6.062334 315.1974 3.836264
141.8841 6.141063 314.6264 4.28219
141.9146 6.012674 313.7509 4.892941
141.9479 5.931701 313.2739 5.194918
141.9812 5.799262 312.5398 5.559984
142.0127 5.756556 311.617 6.058437
142.046 5.403244 310.5137 6.710329
142.0793 5.178028 309.3564 7.614264
142.1127 4.684425 307.4153 8.622246
142.1444 4.393406 306.1733 9.173486
142.1777 4.493206 305.1868 9.802257
142.2084 4.138386 304.2299 10.16862
142.2418 3.801435 303.6621 10.62659
142.2751 3.801856 303.6581 10.97096
142.3084 4.124845 303.9541 11.11248
142.3413 4.080864 304.675 10.94176
142.3746 4.267004 305.2808 10.8632
142.4079 4.538279 305.6496 10.66363
142.4413 4.939219 305.8798 10.66883
142.4746 5.143173 306.2809 10.58875
142.5056 5.176537 306.4486 10.48128
142.5388 4.980739 306.519 10.54341
142.5721 5.356682 306.5415 10.47654
142.6033 5.360909 306.6497 10.14992
142.6355 5.411433 306.8355 9.862207
142.6689 5.519109 306.9295 9.688824
142.7008 5.365071 306.9438 9.606527
142.7341 5.260635 306.9553 9.472873
142.7675 5.176075 306.8118 9.144038
142.7968 5.285357 306.7392 8.834716
142.8293 5.420588 306.6686 8.728558
142.8627 5.28673 306.5165 8.715365
142.896 5.161988 306.438 8.963819
142.9286 5.116795 306.4662 8.849697
142.962 5.113528 306.5698 8.829164
142.9953 4.887386 306.5732 8.74698
143.0286 4.875181 306.5522 8.700324
143.0619 4.935326 306.522 8.631394
143.0918 4.914443 306.5283 8.487613
143.1251 4.725883 306.5401 8.378905
143.1584 4.624606 306.5227 8.502156
143.1895 4.708353 306.515 8.590054
143.2228 4.654132 306.5475 8.503401
143.253 4.570846 306.4423 8.564424
143.2823 4.541074 306.3597 8.607997
143.3156 4.552214 306.3835 8.493155
143.3476 4.509057 306.4201 8.426502
143.3802 4.520998 306.3302 8.591527
143.4129 4.339705 306.3604 8.675269
143.446 4.547913 306.3937 8.512952
143.4793 4.543348 306.3647 8.491223
143.5122 4.596554 306.2503 8.546597
143.5455 4.683515 306.2329 8.622063
143.5779 4.66095 306.1739 8.803293
143.6095 4.67653 306.1506 8.845796
143.6429 4.601982 306.0455 8.858495
143.6741 4.642251 305.851 8.958494
143.7063 4.688387 305.7612 8.855735
143.7396 4.737834 305.6567 8.894618
143.7714 4.692682 305.3035 9.121619
143.8026 4.650994 304.9529 9.286369
143.8339 4.332303 304.0854 9.733355
143.8672 3.953577 302.4622 9.932182
143.9005 3.324764 300.4516 10.02545
143.9327 2.34927 297.7314 10.59424
143.9642 2.214267 295.9527 9.990112
143.9967 2.786086 294.7772 9.268822
144.03 3.133366 293.8419 9.238589
144.0597 3.002137 293.0237 9.272437
144.093 3.134449 292.538 9.196056
144.1243 3.281686 292.3809 8.789187
144.1558 3.423283 292.3212 8.551833
144.1891 3.711259 292.4633 8.375661
144.2224 4.130126 292.5185 8.501913
144.252 4.317011 292.7911 8.488423
144.2831 4.553263 293.0086 8.584284
144.3165 4.85058 293.4245 8.606263
144.3494 4.983387 294.0335 8.653021
144.3827 4.996175 294.6027 8.664539
144.4161 5.271169 295.0292 8.640017
144.4494 5.534725 295.4905 8.528274
144.4827 5.553893 295.9426 8.133879
144.5161 5.706385 295.8784 8.183971
144.5494 5.776103 295.9291 8.247509
144.5813 5.701245 296.2065 8.101659
144.6143 5.438699 296.4869 8.275712
144.6463 5.522846 296.5661 8.398499
144.6796 5.597506 296.5641 8.367292
144.7107 5.570103 296.4022 8.541977
144.744 5.361411 296.4546 8.46967
144.7773 5.352255 296.4993 8.492366
144.8093 5.162681 296.802 8.373827
144.8403 5.121278 296.9806 8.164927
144.8737 5.060295 297.0543 8.134762
144.906 4.96888 297.1412 8.112382
144.9393 5.033625 297.1722 7.986702
144.9723 4.995712 297.3574 7.957803
145.0051 4.800199 297.4805 8.076483
145.0371 4.781411 297.6208 8.174685
145.0704 4.720757 297.7678 8.059365
145.1021 4.689153 298.0191 7.868208
145.1355 4.725486 298.3113 7.675457
145.1673 4.774232 298.6656 7.471825
145.1999 4.846743 299.0388 7.396869
145.2301 4.886542 299.5289 7.064285
145.2634 4.983133 299.9933 6.716575
145.2968 5.190026 300.4916 6.287637
145.3301 5.349444 301.0775 5.71346
145.3634 5.424952 301.584 5.418089
145.3942 5.353573 301.532 5.84998
145.4275 5.233343 301.5847 5.894139
145.4591 5.37283 301.8679 5.628314
145.4924 5.384711 301.7832 5.805345
145.5257 5.352351 301.7902 5.797877
145.5591 5.316871 301.9111 5.737261
145.5924 5.067682 302.0132 5.637495
145.6257 5.094974 302.0265 5.580816
145.6571 5.076492 301.8513 5.581557
145.6904 5.07246 301.765 5.597066
145.7229 5.166162 301.8293 5.567826
145.7562 4.966723 301.9305 5.619789
145.7892 4.887083 301.9909 5.750647
145.821 4.777854 302.055 5.824328
145.8525 4.642911 302.1442 5.814982
145.8852 4.749524 302.3161 5.741781
145.9183 4.913052 302.3839 5.619897
145.9516 4.892849 302.4914 5.442986
145.9837 4.816189 302.6271 5.375811
146.017 4.741779 302.6557 5.471062
146.0504 4.611793 302.7274 5.443449
146.0833 4.871093 302.7415 5.337774
146.1154 4.922134 302.8348 5.078233
146.1472 4.634523 302.9499 5.049795
146.1805 4.713328 302.8466 5.047968
146.2138 4.837778 302.7355 4.923115
146.2472 4.822851 302.7351 4.987376
146.2794 4.874087 302.8963 4.951824
146.3128 4.784545 302.9487 4.833899
146.3459 4.636566 303.027 4.843143
146.3793 4.64179 303.1084 4.706605
146.41 4.821843 303.0875 4.500651
146.4433 4.75201 303.1348 4.471889
146.4767 4.638555 303.1045 4.608788
146.5081 4.660579 303.0541 4.5742
146.5415 4.660931 302.8619 4.640621
146.5732 4.605856 302.7832 4.657532
146.6066 4.64185 302.8904 4.522984
146.6399 4.662082 303.041 4.360916
146.6732 4.662012 303.0714 4.313357
146.7065 4.728231 303.0352 4.417548
146.7399 4.628334 303.2098 4.344642
146.772 4.670427 303.2362 4.240005
146.8053 4.657255 303.2108 4.328011
146.8373 4.697501 303.2244 4.338893
146.8698 4.667432 303.2906 4.206436
146.9031 4.634045 303.2462 4.357394
146.9353 4.606544 303.2913 4.32908
146.968 4.597719 303.2812 4.378143
147.001 4.611395 303.2711 4.385457
147.0339 4.581292 303.4135 4.18705
147.0673 4.556621 303.2906 4.28396
147.099 4.555801 303.2872 4.300628
147.1323 4.56707 303.3033 4.296099
147.1656 4.550215 303.378 4.199696
147.1984 4.611007 303.4883 4.051875
147.2306 4.562329 303.5938 4.019482
147.2624 4.515508 303.6305 3.81653
147.295 4.662567 303.4874 3.839889
147.3265 4.655188 303.5246 3.610587
147.3599 4.65521 303.6241 3.489861
147.3932 4.648955 303.6821 3.455198
147.4238 4.621712 303.6973 3.426358
147.4572 4.654005 303.742 3.375048
147.4905 4.681042 303.7159 3.471356
147.5232 4.696486 303.7551 3.429236
147.5563 4.676381 303.7505 3.338746
147.5896 4.692209 303.7525 3.358634
147.6216 4.765956 303.7899 3.264485
147.6544 4.833268 303.8793 3.167306
147.6852 4.774147 304.0035 3.163484
147.7169 4.744204 304.101 3.107494
147.7503 4.869508 304.1407 2.960893
147.7836 4.92706 304.1939 2.86475
147.8169 4.900899 304.2381 2.791313
147.8502 4.933363 304.308 2.786965
147.8836 5.050052 304.2935 2.867351
147.9167 4.757711 304.4551 2.926467
147.9501 4.664062 304.5301 2.985067
147.9821 4.853892 304.5417 2.740932
148.0154 4.998765 304.5008 2.513396
148.0484 4.868608 304.5247 2.507776
148.0799 4.860957 304.478 2.617964
148.1133 4.925581 304.444 2.569568
148.1466 4.982501 304.2767 2.587848
148.1795 4.894727 304.3571 2.639886
148.2128 4.870134 304.4198 2.639119
148.246 4.889564 304.4529 2.63513
148.2773 4.869711 304.5936 2.599341
148.3081 4.768787 304.5966 2.553487
148.3414 4.847354 304.4376 2.690557
148.3738 4.887604 304.4897 2.607612
148.4072 4.828942 304.6254 2.458677
148.44 4.794016 304.7628 2.504218
148.4729 4.802002 304.7551 2.542145
148.506 4.911913 304.7966 2.440987
148.5366 4.907593 304.8175 2.432368
148.568 4.917885 304.8216 2.474377
148.6005 4.886028 304.9502 2.370244
148.6338 4.92172 305.0327 2.292324
148.6672 4.859881 305.1186 2.222993
148.6982 4.79739 305.2375 2.238565
148.7313 4.864244 305.2681 2.126024
148.7646 4.985534 305.3438 1.929571
148.7979 5.001675 305.3609 1.866398
148.8313 4.89197 305.4214 1.910872
148.8631 4.933229 305.3087 2.092501
148.8964 5.039905 305.3627 1.911294
148.9293 5.078441 305.2957 1.940808
148.9599 5.053393 305.3382 1.971205
148.9916 5.152106 305.3319 1.91923
149.0245 5.257085 305.4443 1.684042
149.0578 5.196294 305.3922 1.653363
149.0904 5.150074 305.4275 1.65225
149.1224 5.240905 305.4819 1.45399
149.1557 5.311461 305.5249 1.326295
149.1867 5.262329 305.5464 1.328505
149.22 5.352914 305.517 1.360865
149.2533 5.341628 305.5232 1.342006
149.2866 5.321396 305.3494 1.520256
149.317 5.425755 305.4046 1.388458
149.3482 5.378596 305.4057 1.254418
149.3816 5.451375 305.4192 1.200388
149.4149 5.411626 305.4284 1.045516
149.4482 5.459942 305.4275 0.9845474
149.4811 5.416263 305.3033 1.115682
149.5142 5.493018 305.2955 1.066809
149.5455 5.467932 305.1056 1.159066
149.5772 5.411273 305.1725 1.194443
149.6074 5.425285 305.2661 1.105781
149.6404 5.549125 305.3863 1.045013
149.6738 5.458666 305.5274 1.160784
149.7048 5.487751 305.6787 1.237653
149.7366 5.599514 305.611 1.296906
149.77 5.591726 305.5372 1.269292
149.8031 5.410931 305.6844 1.112891
149.8365 5.485084 305.7319 1.021268
149.8681 5.604532 305.7371 1.033361
149.9014 5.619099 305.7867 1.015752
149.9327 5.548877 306.0127 0.9651287
149.9636 5.562724 306.0901 0.9762663
149.9969 5.651049 306.1629 0.8649198
150.0286 5.703692 306.3178 0.6934854
150.0604 5.715721 306.4103 0.6208534
150.0914 5.801121 306.5213 0.5430149
150.1247 5.822902 306.5884 0.4107883
150.1573 5.816469 306.6504 0.2570605
150.1906 5.708603 306.5125 0.4202093
150.224 5.646986 306.569 0.397044
150.2573 5.580929 306.6372 0.4258571
150.2906 5.675312 306.6946 0.4033254
150.3206 5.656006 306.7833 0.2653505
150.354 5.456041 306.8354 0.2913299
150.3873 5.609435 306.7988 0.3301117
150.4206 5.752312 306.7533 0.3046589
150.454 5.616546 306.7312 0.3415201
150.4873 5.521103 306.8063 0.4176221
150.519 5.546778 306.8805 0.3435742
150.5523 5.6095 306.679 0.5366899
150.5855 5.621663 306.7541 0.5268698
150.6178 5.578968 306.9043 0.4049321
150.6512 5.541391 306.894 0.3955325
150.684 5.559282 306.9282 0.2403824
150.7174 5.606144 306.9998 0.1085535
150.7507 5.703003 306.9792 0.1132028
150.784 5.628083 307.1831 0.1309477
150.8174 5.788169 307.4132 0.03252191
150.8507 5.878555 307.841 359.9136
150.884 5.920706 308.3383 0.06626139
150.9132 6.214278 309.2213 0.2343948
150.9465 6.50947 310.5093 0.2344437
150.9791 6.727796 312.085 359.8843
151.0119 6.903817 313.7713 359.4222
151.0452 7.022345 314.8634 359.3315
151.0781 6.847845 316.0948 359.7203
151.1114 6.769473 316.8547 359.6855
151.1448 6.746926 317.5537 359.4496
151.1781 6.532351 317.9346 359.3729
151.2114 6.55659 317.9483 359.2684
151.2434 6.504382 318.0761 358.899
151.2767 6.312681 317.927 358.8744
151.3076 6.319143 317.6228 358.9014
151.3394 6.221162 317.4535 358.8841
151.3728 6.132281 317.1116 358.9348
151.4042 6.066308 316.6472 358.9225
151.4376 6.182846 316.1665 358.7989
151.4709 6.401776 315.4208 358.8517
151.5017 6.489137 314.3766 359.0341
151.5328 6.550157 313.6491 359.0007
151.5646 6.479585 313.3446 358.6855
151.5954 6.423808 313.1317 358.3954
151.6266 6.457761 312.7686 358.2762
151.66 6.641861 312.4827 358.2878
151.6922 6.786591 312.0557 358.4018
151.7256 6.797543 311.7269 358.7558
151.7567 6.671834 311.4457 359.1817
151.7886 6.833327 311.2471 359.1947
151.822 6.914111 311.0689 359.1696
151.8553 6.909276 310.8707 359.5038
151.8866 6.873869 310.6547 359.7438
151.9199 7.013405 310.329 359.9761
151.9513 7.264418 310.3089 0.02565543
151.9845 7.251376 310.4305 0.01187449
152.0172 7.2184 310.6027 0.07769921
152.0505 7.216567 310.6322 0.03400647
152.0839 7.126874 310.7525 0.101582
152.1152 7.189583 310.9546 359.9522
152.1486 7.23555 311.1286 359.8081
152.1794 7.224412 311.2916 359.6696
152.212 7.23718 311.3909 359.6484
152.245 7.304169 311.3855 359.473
152.2781 7.19749 311.4402 359.3997
152.3105 7.2081 311.4933 359.3601
152.3438 7.094398 311.497 359.2512
152.3767 7.201049 311.4852 359.1183
152.4095 7.231358 311.5263 359.0221
152.4428 7.181135 311.5269 359.0072
152.4752 7.203948 311.5086 358.9598
152.5068 7.261177 311.5923 358.9158
152.5401 7.175322 311.6977 358.8332
152.5715 7.106258 311.7364 359.0174
152.6038 7.063909 311.7052 359.0515
152.6372 7.175488 311.5414 359.1578
152.6689 7.130002 311.1882 359.3243
152.6993 7.187327 310.9989 359.3318
152.7303 7.213611 310.9589 359.2092
152.7621 7.351217 310.9622 359.1067
152.7954 7.364453 310.9866 359.0416
152.8274 7.32551 310.9185 359.019
152.8607 7.325751 310.9932 359.0109
152.8936 7.331633 310.8911 359.0121
152.927 7.344625 310.8751 358.8985
152.9603 7.37863 310.8985 358.7297
152.9931 7.410323 310.9312 358.6036
153.0264 7.435712 310.8119 358.6016
153.0579 7.381256 310.7562 358.6936
153.0913 7.292717 310.8009 358.7559
153.1246 7.283259 310.9375 358.655
153.1569 7.340246 310.9994 358.5308
153.1877 7.419937 310.9514 358.441
153.22 7.348547 310.9922 358.4222
153.2533 7.314949 311.0222 358.4547
153.2859 7.312636 311.1978 358.3861
153.3192 7.401362 311.3308 358.3659
153.3493 7.387676 311.4048 358.3182
153.3827 7.411868 311.6021 358.3482
153.4156 7.349112 312.0895 358.2365
153.4465 7.360194 312.6281 358.053
153.4798 7.345122 313.3014 357.767
153.5132 7.405798 313.8069 357.7018
153.5465 7.525619 314.2427 357.5511
153.5788 7.582453 314.6775 357.4929
153.6122 7.627263 314.9906 357.4729
153.6455 7.706226 315.5115 357.0435
153.6764 7.788904 315.8598 356.7606
153.7098 7.888675 315.989 356.7049
153.7414 7.911037 316.2214 356.5091
153.7725 7.96158 316.4918 356.3436
153.8058 8.054063 316.9404 356.1357
153.8369 8.265497 317.5045 355.9671
153.8702 8.579737 318.4515 355.9065
153.9035 8.672462 319.4627 355.557
153.9344 8.753115 320.0315 355.3741
153.967 8.826161 320.3767 355.1861
154.0004 9.057436 320.6461 355.172
154.0337 9.084021 320.9801 355.1201
154.067 9.037994 321.4165 355.1679
154.1004 8.997147 321.6221 355.0582
154.1325 9.139764 321.6126 354.9109
154.1658 9.305282 321.4541 354.8311
154.198 9.355384 321.3737 354.6185
154.2288 9.332297 321.2021 354.5529
154.2621 9.257283 321.1605 354.4755
154.2955 9.207751 321.1787 354.4216
154.3272 9.242956 321.2635 354.4183
154.3605 9.039367 321.5121 354.3346
154.3939 9.060658 321.636 354.3063
154.4258 9.166991 321.7159 354.1987
154.4592 9.203952 321.7544 354.0474
154.4914 9.262167 321.7645 354.0163
154.5235 9.353774 321.7927 353.9477
154.5568 9.36289 321.8324 353.8989
154.5892 9.369283 321.8859 353.9741
154.6223 9.439359 322.0432 353.8388
154.6556 9.456999 322.0747 353.82
154.6889 9.417474 322.0791 354.1564
154.7201 9.435637 322.0061 354.2238
154.7511 9.474457 321.9892 354.2078
154.7844 9.435192 322.0142 354.1677
154.815 9.313694 322.2467 353.9724
154.8483 9.326758 322.3989 353.7915
154.8806 9.362579 322.5892 353.6489
154.9108 9.502126 322.5381 353.7761
154.9441 9.40871 322.6055 353.7951
154.9768 9.439775 322.6534 353.8322
155.0065 9.507411 322.8154 353.6854
155.0393 9.521319 322.9653 353.5395
155.0714 9.463101 322.9965 353.5559
155.1024 9.413592 323.0216 353.5525
155.1332 9.613626 322.9598 353.4066
155.1649 9.79487 322.9122 353.0927
155.1953 9.621727 323.1134 353.0258
155.2283 9.474089 323.1905 353.1094
155.2616 9.622402 323.076 353.1264
155.2933 9.763131 323.2316 352.9856
155.3266 9.713638 323.3889 352.977
155.3585 9.717977 323.5714 352.8836
155.3919 9.748874 323.6602 352.9028
155.4252 9.841823 323.6955 352.8301
155.4585 9.962309 323.7566 352.7368
155.4895 9.941321 323.9151 352.7985
155.5228 9.912302 324.0371 352.781
155.5561 9.935769 324.1496 352.5682
155.5895 10.08778 324.3664 352.4597
155.6228 10.15423 324.4099 352.5656
155.6561 10.18289 324.444 352.5071
155.6863 10.16641 324.5323 352.4097
155.7197 10.19604 324.6512 352.4099
155.7518 10.12279 324.8582 352.5644
155.7851 10.18027 325.0603 352.5096
155.8184 10.28219 325.2578 352.436
155.8504 10.33127 325.5804 352.3224
155.8813 10.29246 325.9231 352.2915
155.9141 10.3274 326.1674 352.2118
155.9444 10.37991 326.4928 352.0627
155.9752 10.51828 326.7516 351.8986
156.0069 10.60598 326.9851 351.7855
156.0376 10.71604 327.2975 351.5779
156.0709 10.82155 327.5084 351.4581
156.1026 10.80648 327.7939 351.3117
156.136 10.90765 328.1531 351.2707
156.1662 11.09861 328.4698 351.119
156.198 11.12016 328.7236 351.0719
156.2312 11.1142 329.0367 350.8853
156.2615 11.09295 329.2811 350.6824
156.2942 11.21597 329.343 350.6031
156.3255 11.42742 329.4482 350.3764
156.3589 11.56704 329.8182 350.2705
156.3909 11.5446 329.7636 349.9719
156.4219 11.53838 329.8916 350.1398
156.4552 11.71425 330.0286 350.0559
156.4875 11.81773 330.2378 349.9948
156.5197 12.05803 330.6294 350.0641
156.5531 12.11772 330.9923 349.9163
156.5864 12.30879 331.4195 349.8253
156.6197 12.51099 331.8147 349.7173
156.6531 12.65086 332.0994 349.7145
156.6864 12.99068 332.4713 349.6161
156.7197 13.04117 332.8687 349.5103
156.7505 13.01663 333.1848 349.4854
156.7836 12.89344 333.4685 349.3002
156.8148 13.03688 333.7575 349.203
156.8453 13.25252 334.0976 349.2333
156.8776 13.14724 334.4093 349.1327
156.911 13.03375 334.81 349.0313
156.9443 13.19126 334.942 349.0158
156.9751 13.42248 335.179 349.0257
157.0083 13.47259 335.3611 348.9218
157.0416 13.4939 335.6104 348.8193
157.0741 13.5613 335.8331 348.8779
157.106 13.28871 336.0608 348.8577
157.1376 12.98441 336.3671 349.0951
157.1689 13.06475 336.5232 349.2353
157.202 13.33907 336.5475 349.1999
157.2332 13.47523 336.5765 349.1128
157.2643 13.51799 336.6699 349.1503
157.2976 13.49964 336.7294 349.1528
157.3308 13.53624 336.7243 349.2397
157.3641 13.64721 336.7817 349.3367
157.3958 13.80708 336.8675 349.4624
157.4291 14.23053 336.8177 349.4998
157.4612 14.03098 336.9413 349.4372
157.4934 13.85793 337.0672 349.4651
157.526 14.04267 337.1873 349.4256
157.5586 14.4958 337.2145 349.4315
157.5919 14.86562 337.1536 349.5452
157.6247 15.10958 337.0302 349.5135
157.6576 15.1595 337.1591 349.4499
157.691 15.1159 337.1905 349.3587
157.7223 15.02875 337.3533 349.459
157.7556 15.26859 337.3843 349.4265
157.7885 15.25386 337.4295 349.3091
157.8187 15.17139 337.5946 349.3489
157.8521 15.11349 337.8234 349.2687
157.8839 15.15654 338.034 349.1733
157.9172 15.34261 338.1932 349.1082
157.9506 15.44682 338.3728 348.9493
157.9839 15.73105 338.5613 348.7787
158.0161 15.79448 338.6549 348.728
158.0469 15.68416 338.7863 348.6714
158.0784 15.79309 338.9464 348.4492
158.1117 15.82419 339.0019 348.2847
158.1439 15.80202 338.9672 348.1843
158.1772 15.80523 338.9916 348.1135
158.209 15.77313 338.9788 348.0175
158.2422 15.86789 338.9679 347.8999
158.2755 15.90841 338.9427 347.8634
158.3088 15.91352 338.9607 347.8104
158.3422 15.94867 338.9065 347.7094
158.3726 16.05836 338.8755 347.6368
158.4041 15.98237 338.8468 347.5773
158.4374 15.97896 338.7946 347.67
158.4708 16.00042 338.841 347.6348
158.5041 16.00369 338.8348 347.655
158.5374 16.021 338.8496 347.6242
158.5688 16.18818 338.8048 347.4668
158.5996 16.26863 338.8542 347.3969
158.6329 16.30575 338.8765 347.3707
158.6663 16.35127 338.9211 347.3147
158.6993 16.45191 338.8308 347.238
158.7327 16.58604 338.7777 347.0717
158.7659 16.60813 338.8673 347.0203
158.7988 16.62568 338.8592 347.1161
158.8321 16.5536 338.8397 347.0222
158.8654 16.60319 338.8609 346.9242
158.8988 16.61483 338.9102 346.9545
158.9296 16.62099 338.8768 346.9226
158.9629 16.677 338.828 346.9138
158.9962 16.61893 338.9192 346.8007
159.0282 16.58909 338.9703 346.8948
159.0615 16.62463 338.989 346.8066
159.0948 16.61543 339.0468 346.8658
159.1282 16.66798 339.097 346.8164
159.1615 16.88809 339.0445 346.6725
159.1949 16.82336 339.0626 346.6266
159.2267 16.73718 339.1728 346.6378
159.26 16.8481 339.0817 346.4116
159.2906 17.0747 339.0229 346.3329
159.3232 17.14996 339.0731 346.1853
159.3557 17.15923 339.1702 346.0816
159.3863 17.14792 339.1305 346.0508
159.4196 17.23564 339.1657 345.9903
159.453 17.19534 339.2348 345.9587
159.4847 17.16578 339.2316 345.9937
159.5174 17.19378 339.2373 345.9395
159.5507 17.24426 339.3105 345.8643
159.5841 17.24245 339.3401 345.8515
159.6174 17.23882 339.3701 345.8952
159.6499 17.26644 339.3698 345.901
159.6815 17.29431 339.3997 345.8113
159.7141 17.13772 339.4683 345.816
159.7455 17.10279 339.4434 345.8913
159.7752 17.26465 339.4613 345.7999
159.8066 17.39383 339.5012 345.7219
159.8378 17.35364 339.5215 345.7248
159.8709 17.30005 339.5637 345.7327
159.9042 17.27121 339.5913 345.6906
159.9375 17.35904 339.6099 345.6698
159.9709 17.47202 339.7017 345.6134
160.0027 17.5646 339.8679 345.4679
160.0356 17.63632 339.8816 345.376
160.065 17.78343 339.8758 345.3384
160.0966 17.78074 339.9233 345.2969
160.1299 17.81724 339.9361 345.2399
160.1609 17.85468 339.9518 345.1823
160.1926 17.9125 339.9676 345.127
160.2259 17.90209 339.9892 345.1061
160.257 17.87908 339.9546 345.0916
160.2903 17.79411 340.1815 345.2034
160.3221 17.84072 340.2042 345.1605
160.3547 17.917 340.2145 345.1355
160.3876 17.95815 340.2751 345.128
160.4209 17.86357 340.2441 345.2271
160.4537 17.8259 340.2665 345.1925
160.487 17.85373 340.3246 345.1241
160.5203 17.89088 340.352 345.0349
160.5527 18.01646 340.272 344.9693
160.5861 18.025 340.3051 345.0211
160.6194 17.96147 340.3515 344.9801
160.6527 18.00196 340.3109 344.8572
160.6861 18.05531 340.3042 344.8056
160.7194 17.99885 340.3632 344.7667
160.7527 18.13321 340.3681 344.6557
160.7861 18.19436 340.505 344.6249
160.8194 18.19734 340.5162 344.6087
160.8527 18.34833 340.4785 344.5143
160.886 18.30696 340.56 344.4467
160.9185 18.32578 340.5845 344.4616
160.9519 18.36746 340.5959 344.4073
160.9852 18.42156 340.6373 344.4514
161.0185 18.4635 340.7411 344.4578
161.0487 18.52543 340.9188 344.4554
161.082 18.55936 341.0886 344.4912
161.1154 18.59612 341.2481 344.5314
161.1481 18.67887 341.3857 344.5224
161.1815 18.73898 341.4882 344.5468
161.2148 18.85993 341.7485 344.3893
161.2481 19.03288 341.883 344.2962
161.2808 19.2834 341.8643 344.2524
161.3136 19.34702 341.9975 344.2021
161.344 19.34254 342.1119 344.1153
161.377 19.31873 342.1677 344.0741
161.4076 19.36662 342.2606 343.9024
161.4382 19.47999 342.3423 343.8622
161.4711 19.5519 342.4881 343.7515
161.5039 19.72437 342.6639 343.6355
161.5342 19.97127 342.9191 343.427
161.5675 20.10731 343.1073 343.3169
161.6008 20.36592 343.4975 343.2214
161.6342 20.85804 344.252 343.3391
161.6675 21.6214 345.4452 343.5626
161.7008 22.63416 347.0196 344.1108
161.7335 23.70688 349.0136 344.7601
161.7664 25.19848 351.3221 345.1887
161.7997 27.03964 353.5853 345.9672
161.833 28.71934 356.4547 347.2728
161.8664 30.08522 358.8535 347.8377
161.8997 31.36498 1.568803 348.5083
161.9303 32.70266 3.501673 349.4429
161.9629 34.20229 4.648568 349.5889
161.9962 34.97652 5.706598 350.1441
162.0296 36.0846 6.295159 350.5285
162.0627 37.10202 6.515975 350.3915
162.096 37.59391 6.244381 350.2002
162.1267 37.79552 5.876547 350.33
162.16 37.98 5.596126 349.9788
162.1934 38.17098 4.979523 349.419
162.2267 38.22494 4.321953 349.4791
162.2601 38.26908 3.785416 349.2548
162.2934 37.8555 3.402827 349.262
162.3243 37.46817 2.938043 349.3417
162.3576 37.34306 2.672934 349.3653
162.3909 37.05552 2.468081 349.3738
162.421 36.69672 2.060776 349.4358
162.4533 36.65599 1.785892 349.1811
162.4866 36.55781 1.727643 349.1714
162.52 36.28469 1.559554 349.2945
162.5527 36.33425 1.378854 349.2837
162.5842 36.3017 1.548269 349.4337
162.6159 36.19196 1.840963 349.7797
162.6493 36.28448 2.036023 350.0733
162.6826 36.58327 2.514088 350.091
162.7126 36.70444 2.830258 350.246
162.7448 36.83459 2.989006 350.2607
162.7756 37.23451 3.294118 350.3877
162.808 37.40255 3.887552 350.6339
162.8412 37.39536 4.503223 350.8118
162.8721 37.32248 4.88289 350.8076
162.9054 37.30199 5.170925 350.8599
162.9386 37.50271 5.782379 350.7349
162.9719 37.50517 5.895515 350.8758
163.0049 37.50738 5.785226 351.0787
163.0353 37.30398 5.520049 350.7994
163.0686 37.10705 5.495587 350.8655
163.0988 36.89042 5.428802 350.846
163.1321 36.83385 5.249755 350.6814
163.1646 36.83447 5.135916 350.6245
163.1976 36.86924 5.036342 350.5631
163.2288 36.90495 4.984553 350.5361
163.2622 37.02278 4.779153 350.3748
163.2932 37.15998 4.602404 350.2149
163.3261 37.21949 4.440427 350.1276
163.3576 37.30005 4.159895 350.0111
163.391 37.32444 3.922301 349.9332
163.4232 37.34816 3.656637 349.9707
163.4552 37.32606 3.591774 349.9862
163.4853 37.28817 3.438118 349.9874
163.5174 37.26628 3.343674 349.9574
163.5507 37.27413 3.288311 349.8959
163.5835 37.29348 3.240391 349.9397
163.6168 37.38137 3.230891 349.9462
163.6502 37.59953 3.214597 349.934
163.6835 37.73238 3.326516 349.9507
163.7168 37.79988 3.244433 349.9092
163.7477 37.80567 3.238513 349.9021
163.781 37.90851 3.295222 349.8823
163.8143 37.91991 3.213925 349.8766
163.8477 37.96697 3.273544 349.7597
163.8793 38.03572 3.281553 349.6549
163.9109 38.06862 3.290644 349.6145
163.9425 38.0461 3.274783 349.6569
163.9753 38.03569 3.28273 349.6993
164.0086 38.09706 3.287537 349.698
164.0419 38.20409 3.255456 349.6667
164.0726 38.16326 3.298821 349.7308
164.106 38.16401 3.233978 349.7136
164.137 38.25743 3.003525 349.6194
164.1694 38.25212 2.845217 349.5741
164.2027 38.13845 2.82598 349.5421
164.2355 38.15048 2.848752 349.4687
164.2674 38.22248 2.844668 349.3682
164.3007 38.10216 2.932485 349.4828
164.334 38.08555 2.955043 349.535
164.3673 38.0355 2.999519 349.5253
164.4006 37.99331 3.004283 349.5725
164.4332 37.95881 3.063325 349.5945
164.4658 37.89159 3.113712 349.6364
164.4991 37.76351 3.075393 349.677
164.5325 37.75411 2.954921 349.6522
164.5658 37.76781 2.865616 349.6067
164.5991 37.65709 2.872364 349.686
164.6307 37.58598 2.822455 349.7463
164.664 37.63929 2.772486 349.6555
164.6974 37.63305 2.750902 349.6154
164.7304 37.54282 2.785403 349.7569
164.7602 37.53319 2.773061 349.7994
164.7929 37.4659 2.890307 349.897
164.8261 37.50212 2.874934 349.9572
164.8568 37.52906 2.842984 349.9297
164.8892 37.49824 2.710646 349.8363
164.9203 37.41476 2.809196 349.9654
164.9528 37.39295 2.881474 349.978
164.9848 37.50077 2.78001 349.875
165.0172 37.57402 2.644223 349.8734
165.0494 37.53655 2.656173 349.8876
165.0816 37.47077 2.591283 349.8933
165.115 37.33741 2.53502 349.8943
165.1458 37.35774 2.477348 349.8336
165.1791 37.40178 2.490055 349.8477
165.2114 37.37996 2.467206 349.8988
165.2447 37.27483 2.550402 350.0483
165.2758 37.36924 2.447587 349.9398
165.3091 37.34071 2.495174 349.9522
165.3403 37.19258 2.451051 349.9135
165.373 37.22429 2.45539 349.9709
165.4063 37.28302 2.36852 349.9024
165.4386 37.21961 2.425685 349.9834
165.4698 37.08957 2.503201 350.1081
165.5032 37.1482 2.426703 350.0532
165.5365 37.18461 2.407991 350.0381
165.5694 37.04865 2.448904 350.1472
165.6028 37.11812 2.383132 349.9869
165.6333 37.36083 2.299396 349.8095
165.6666 37.49313 2.248953 349.6785
165.6991 37.48603 2.25106 349.6453
165.7312 37.36344 2.142461 349.6605
165.7646 37.32999 2.058153 349.6688
165.7979 37.36885 1.985524 349.6037
165.8302 37.51384 1.949294 349.4525
165.8635 37.64841 2.153019 349.3923
165.8968 37.90807 2.121302 349.2266
165.9301 38.18182 1.957823 349.0224
165.963 38.26283 2.043213 348.969
165.9963 38.29579 2.123735 349.0374
166.0283 38.49894 2.191268 348.9931
166.0601 38.8107 2.264399 348.6678
166.0934 39.00544 2.28225 348.5466
166.1267 38.85667 2.41766 348.8501
166.1601 38.81671 2.254483 348.8615
166.1917 38.78503 2.211749 348.9353
166.224 38.85767 2.159461 348.823
166.2574 39.14264 2.154091 348.614
166.2896 39.20007 2.26083 348.6117
166.3199 39.22129 2.242913 348.551
166.3533 39.25204 2.113898 348.2835
166.3846 39.26897 2.124821 348.2472
166.4179 39.14949 2.036047 348.2376
166.4494 38.95041 1.99227 348.3324
166.4827 39.14156 1.844917 348.0634
166.5152 39.35394 1.91565 348.0148
166.5482 39.31012 1.987637 348.0971
166.5815 39.24442 1.989366 348.1608
166.6113 39.35929 1.874145 347.9822
166.6446 39.43187 1.779691 347.8958
166.6777 39.37759 1.718109 347.8771
166.711 39.38467 1.678618 347.7189
166.7443 39.46682 1.723373 347.6145
166.7777 39.50804 1.73664 347.6576
166.8106 39.37586 1.718328 347.7477
166.8418 39.35595 1.690845 347.734
166.8723 39.4286 1.702146 347.6725
166.9027 39.35705 1.649093 347.723
166.9342 39.37438 1.6372 347.7366
166.9675 39.41921 1.734071 347.7108
166.997 39.22069 1.833407 347.8676
167.0303 39.02649 1.780329 348.1016
167.0621 38.85368 1.866741 348.1419
167.0954 38.1161 2.081079 348.7269
167.1269 37.69947 1.799873 348.985
167.1585 37.39906 1.399931 348.7629
167.1911 37.29967 1.214331 348.6665
167.2243 36.85435 1.236287 348.5392
167.2577 36.4981 1.14718 348.6725
167.291 36.21124 1.067147 348.6953
167.3243 35.80696 1.370822 348.8279
167.3559 35.08509 2.084632 349.2667
167.3892 34.34907 2.631746 349.5982
167.4205 32.13319 3.518143 349.9946
167.4538 30.68054 3.836039 350.2218
167.4872 27.53535 4.53715 351.1799
167.5205 24.55648 5.226137 352.1554
167.5533 21.43997 6.064733 353.118
167.5852 18.87854 6.070572 353.888
167.6185 16.34167 5.820549 354.4341
167.6514 14.32603 5.689974 354.808
167.6819 11.96874 5.643277 355.202
167.7124 9.752464 5.447415 355.6249
167.7437 8.852567 5.236155 355.6979
167.7757 7.930447 4.867634 355.7992
167.809 6.59678 4.453455 356.5037
167.8424 5.283961 3.597469 356.8878
167.8716 4.853326 2.856797 356.6213
167.9046 4.348814 2.22515 356.3728
167.9357 3.507413 1.405368 356.6556
167.969 2.985451 0.4181853 356.4829
168.0005 3.048818 359.5657 356.214
168.0335 3.086945 358.6913 356.1622
168.0669 3.115736 357.9853 356.0102
168.1002 3.423416 357.6193 355.4831
168.1335 3.633564 357.4037 355.2535
168.1645 3.844725 357.199 355.0702
168.1947 4.274849 357.1366 354.7615
168.2273 4.825797 357.2219 354.2901
168.2606 5.086803 357.2813 354.119
168.2939 5.157603 357.3751 353.8697
168.3273 5.500577 357.5751 353.6388
168.358 5.437769 357.7634 353.4673
168.3912 5.678673 357.6256 353.3371
168.4246 6.088385 357.631 352.9647
168.4574 5.93212 357.8791 352.9402
168.4907 5.805535 357.8824 352.9552
168.5212 5.908635 357.8955 352.7863
168.5546 5.952335 357.9455 352.805
168.5874 6.173065 357.8341 352.5804
168.6208 6.313577 357.8587 352.3349
168.6541 6.280195 357.8014 352.3309
168.6874 6.222308 357.7419 352.3405
168.7205 6.287279 357.8081 352.2002
168.7514 6.378578 357.7332 352.0862
168.7848 6.501604 357.7054 351.975
168.8159 6.663517 358.3999 351.1287
168.8468 7.42112 359.4128 350.3542
168.8798 8.478677 0.2851954 349.3857
168.9131 11.30874 1.877854 347.8322
168.9453 17.46571 5.021323 346.3026
168.9786 20.21309 7.664907 345.9138
169.0119 29.09251 12.41332 345.199
169.0453 38.38042 17.22056 345.0721
169.078 45.70461 22.64746 345.6427
169.11 50.74789 28.63596 348.7155
169.1413 53.50046 32.97204 352.7266
169.174 55.21265 34.58122 356.6479
169.2047 56.07338 35.24226 359.6651
169.237 56.74976 37.00917 3.050916
169.2704 57.84294 37.68576 6.178364
169.3026 60.40666 36.41824 6.570572
169.3359 61.8848 36.70809 7.696398
169.3693 64.57949 38.26572 8.581923
169.4026 65.43147 39.34674 9.934352
169.433 64.11518 36.92409 9.46316
169.4653 64.28845 38.15226 11.96608
169.4987 64.50877 41.57792 14.44447
169.5314 61.97047 47.38105 18.89835
169.5639 61.02882 48.94404 20.32834
169.595 71.89391 34.51808 5.782884
169.6248 73.69292 42.21616 11.71378
169.6574 69.43217 34.96506 4.930905
169.6908 68.62608 28.29172 359.8864
169.7218 70.09093 26.65175 358.0328
169.7551 71.1231 24.77698 355.2854
169.7884 70.53302 22.19485 353.2505
169.8195 71.48654 23.33877 354.5422
169.8526 73.06638 20.44751 351.1795
169.8859 70.18977 15.54694 346.7343
169.9193 66.43305 14.2186 346.1646
169.9526 61.04081 12.66809 346.7437
169.9855 55.82512 9.135347 345.806
170.0164 56.59503 5.885753 344.9023
170.0485 61.97283 1.563171 343.0466
170.0818 70.8298 350.8582 334.974
170.1117 72.60116 340.9197 327.8137
170.145 39.34394 0.0008478627 352.8615
170.1783 37.47926 359.3918 355.3241
170.2107 37.49943 353.3736 351.2071
170.244 33.09287 347.3804 347.2322
170.2774 28.24342 343.1264 347.7314
170.3085 23.8582 336.4633 349.4825
170.3405 20.79037 330.2456 350.617
170.3729 16.90033 323.3774 351.2308
170.4063 10.31062 316.5204 350.6793
170.4396 1.852285 309.3745 348.8061
170.4706 357.7516 307.4879 346.8375
170.5017 356.6069 305.9518 343.4331
170.535 347.3302 305.5476 347.8528
170.5649 338.8127 301.4772 348.7549
170.5953 346.3914 304.8398 338.1126
170.6267 351.8875 307.3073 336.1954
170.6584 349.5962 305.6749 338.8469
170.6891 346.8768 305.5027 341.1457
170.7224 346.7068 305.534 341.134
170.7558 346.7142 305.0522 341.4501
170.7855 348.3011 305.519 340.6471
170.8188 348.6685 305.4572 340.4122
170.8521 348.0645 305.3274 340.2493
170.8848 347.2477 305.3438 339.8081
170.9182 346.7865 304.7885 340.3579
170.9498 346.5498 304.1501 340.8786
170.9785 346.8041 303.4593 341.4445
171.0118 347.0915 302.838 341.6797
171.0451 346.8239 302.4517 341.5631
171.0785 346.7242 302.0517 341.2662
171.1118 346.6954 301.8151 341.7615
171.1451 347.1761 301.9659 342.5176
171.1754 347.4023 302.1479 342.4355
171.2062 347.4653 302.3256 342.6349
171.2392 346.8381 302.2541 342.8835
171.2692 346.8583 301.907 343.0972
171.3025 346.9734 302.5263 343.2965
171.335 346.639 302.9812 343.1727
171.3665 346.4767 303.2755 342.7414
171.3998 346.5963 303.7112 342.2697
171.4332 346.6482 304.0335 342.4259
171.4665 346.7355 304.5948 342.4482
171.4986 346.7538 304.7769 342.5596
171.53 346.6575 305.1321 342.6642
171.5634 346.7184 305.2721 343.2601
171.5965 346.7852 306.0632 343.502
171.6298 346.6458 306.2898 343.5589
171.6613 346.679 306.2158 343.3613
171.6916 346.5943 306.2905 343.4874
171.7249 346.6735 306.602 343.6065
171.7582 346.8143 306.8435 343.7657
171.7902 347.0121 306.9709 343.796
171.8236 347.0578 306.9641 343.6872
171.8535 347.125 307.0964 343.5487
171.8868 347.1786 307.1806 343.5669
171.9201 347.3 307.3662 343.6327
171.9529 347.3443 307.39 343.7718
171.9862 347.2321 307.3068 344.0635
172.0196 346.8798 307.2008 344.1361
172.0529 346.5132 307.1816 344.3763
172.0841 346.3655 307.0618 344.778
172.1174 346.4887 306.9145 345.1307
172.1475 346.6847 306.5623 345.3849
172.1794 346.7436 306.7153 344.8702
172.2127 346.1868 307.2279 343.2762
172.2457 345.4134 307.7714 340.6389
172.279 344.796 308.2619 338.6179
172.3123 345.2893 307.6998 339.2024
172.3456 345.4915 308.0548 340.6252
172.379 345.5318 308.2437 341.8945
172.4109 345.1865 308.3439 342.0551
172.4438 345.2271 308.3427 341.4227
172.4742 345.4182 308.3369 340.9751
172.5076 345.5627 308.3673 341.0696
172.5409 345.5668 308.4012 341.3577
172.574 345.4804 308.3047 341.5544
172.6067 345.4964 308.3553 341.3553
172.6401 345.5576 308.408 341.2975
172.6723 345.577 308.4181 341.4317
172.7044 345.604 308.3426 341.5228
172.7373 345.4506 308.3802 341.5573
172.7679 345.4485 308.3969 341.5951
172.7995 345.5656 308.496 341.5202
172.8295 345.6104 308.5974 341.4678
172.86 345.6682 308.5978 341.3301
172.8923 345.6774 308.5957 341.1463
172.9245 346.8316 307.3684 342.6406
172.9552 345.7911 307.2576 342.5486
172.9856 345.4412 307.1761 341.8568
173.0189 343.9588 306.9352 340.8937
173.0501 343.1762 307.0825 340.0964
173.0834 343.3573 306.3433 340.7061
173.1148 344.1718 306.6351 342.2353
173.1482 344.7195 307.3632 343.0432
173.1803 344.6064 306.9655 343.3676
173.2119 344.337 307.8336 342.2856
173.2445 344.6148 307.0142 342.5815
173.2778 344.5687 306.9567 342.5249
173.3112 344.5669 307.131 342.4406
173.343 344.5458 307.2104 342.395
173.3763 344.4025 307.1819 342.4089
173.4096 344.3319 307.0617 342.4623
173.4413 344.2924 307.0655 342.5441
173.4733 344.3632 307.0747 342.5963
173.5052 344.4744 307.0512 342.6036
173.536 344.3979 307.0405 342.5257
173.5671 344.5493 307.117 342.5429
173.5981 344.5683 307.1431 342.5746
173.6314 344.5909 307.1687 342.5792
173.6647 344.5572 307.1665 342.5678
173.695 344.5794 307.1907 342.6153
173.7276 344.5429 307.1813 342.6585
173.7609 344.5918 307.1566 342.6574
173.7908 344.5816 307.1422 342.6046
173.8241 344.5735 307.1895 342.6324
173.8574 344.6262 307.1863 342.7424
173.8888 344.6336 307.2089 342.7374
173.9194 344.5718 307.1851 342.7123
173.9526 344.6094 307.1655 342.7668
173.9859 344.6524 307.2122 342.7883
174.0181 344.632 307.1696 342.7761
174.0498 344.6404 307.1833 342.7646
174.0817 344.7058 307.1862 342.7933
174.1143 344.7105 307.1739 342.7995
174.1465 344.6996 307.1744 342.7599
174.1782 344.7161 307.2264 342.7684
174.2115 344.7495 307.2219 342.7935
174.2426 344.6916 307.2146 342.7463
174.2759 344.5746 307.2245 342.6616
174.3092 344.4834 307.1865 342.7994
174.3425 344.5203 307.0969 342.9756
174.3759 344.3737 306.9731 342.7391
174.4092 344.3755 306.9009 342.351
174.4426 344.4955 306.8013 342.1648
174.474 344.6573 306.8278 342.2143
174.5052 344.5678 306.722 342.2999
174.5385 344.4446 306.68 342.3493
174.5687 344.2804 306.5496 342.4518
174.6019 344.2631 306.5839 342.4124
174.6352 344.1674 306.5647 342.4567
174.6658 344.1246 306.4251 342.3288
174.6983 344.1088 306.339 342.244
174.7295 344.0977 306.612 342.0895
174.7629 344.179 306.9286 342.1293
174.7946 344.387 307.2206 342.069
174.8263 344.5198 307.5013 341.9824
174.8597 344.8419 308.0286 342.1591
174.8921 345.2792 308.8651 342.5251
174.9234 345.8068 309.9869 343.2949
174.9541 346.4274 310.5041 342.8634
174.9856 346.7122 311.701 342.6384
175.0172 347.2623 313.0052 343.2776
175.0499 347.7756 313.8356 343.4854
175.0824 348.1047 314.9026 343.1296
175.1136 347.4801 317.5378 345.3996
175.1463 348.0247 316.8052 344.7669
175.1782 348.8345 316.9009 342.4606
175.2115 349.874 318.1399 342.243
175.2449 349.722 318.5207 343.4334
175.2782 350.8022 318.1819 343.8426
175.3094 352.9213 318.5867 343.3792
175.3381 355.2603 319.4647 343.4074
175.3715 358.0892 321.3779 343.1685
175.4048 354.7694 328.1821 346.5452
175.4348 353.0115 326.2499 352.2903
175.4682 1.213716 327.8357 357.2888
175.4985 3.556121 332.7037 2.025966
175.5301 5.913687 335.9065 5.327169
175.5635 4.43433 338.0597 5.55163
175.5942 3.926723 336.4868 5.936598
175.6257 2.741311 332.9486 6.5587
175.6572 358.4422 330.4471 7.461844
175.6874 351.9873 327.0012 9.828796
175.7205 350.6901 325.2238 10.0111
175.7517 347.5163 325.4679 7.256156
175.785 343.4963 326.7963 3.327172
175.8183 341.3236 330.7858 357.084
175.8517 339.2746 333.1947 352.4533
175.885 336.5885 332.5615 354.3346
175.9183 337.1407 331.2087 0.1615036
175.9517 339.3145 332.6403 8.154725
175.9835 341.2104 333.951 10.89387
176.0156 343.4472 335.5849 11.25283
176.0476 345.8358 339.1145 10.28081
176.0809 347.7867 342.8366 9.400108
176.1134 349.3802 345.6514 9.697492
176.1442 350.3317 347.4658 10.83369
176.1775 352.1252 348.9126 11.98443
176.2079 354.6932 350.0221 12.45004
176.2413 357.0266 352.2494 12.19295
176.273 359.4452 353.4133 13.744
176.3026 1.142934 352.3377 16.25174
176.3345 3.183034 354.0845 16.58242
176.3674 3.830809 355.4062 15.81213
176.3989 3.451999 355.4525 14.12848
176.4323 2.979137 357.2826 10.65957
176.4642 1.524068 357.0356 7.929121
176.4944 0.170694 355.4047 6.486531
176.5253 358.9905 355.1922 5.467041
176.5585 357.7466 353.6539 5.668579
176.5905 357.3279 353.5122 5.993679
176.6217 358.1036 354.5889 7.014812
176.6526 357.9151 354.6801 7.947169
176.6859 357.5129 355.6499 7.299867
176.7193 357.1571 356.2241 6.188071
176.7526 356.064 355.7124 6.070525
176.7823 354.6248 354.6437 6.192886
176.8156 353.9189 353.973 6.179553
176.849 353.5456 352.5525 6.741645
176.8823 355.3208 352.3645 6.548773
176.9156 356.3001 352.5187 5.13039
176.949 356.1818 351.3906 5.034567
176.9791 356.6194 350.5834 4.750907
177.0117 356.4882 350.1643 3.877501
177.045 356.4807 349.7526 2.878786
177.0776 353.2652 351.0074 358.9632
177.1099 354.0564 348.705 0.7337292
177.1432 353.7558 348.9407 0.6140354
177.1765 353.1957 348.8212 1.353826
177.2099 353.4863 349.6972 2.625638
177.2416 352.3254 348.9029 3.328205
177.2717 352.1597 349.1577 1.774701
177.3051 351.7738 349.4376 2.000446
177.3373 351.7434 349.2818 1.815605
177.3668 353.0078 349.6068 2.773031
177.4001 352.6648 348.8791 2.419931
177.4304 352.8994 348.006 2.519856
177.4613 352.2452 347.3964 2.127793
177.4923 352.2929 346.8381 2.1936
177.5225 352.2389 346.3075 2.188242
177.5519 352.2565 347.1404 2.254161
177.5844 351.7751 347.9516 2.037927
177.6145 352.1714 348.4779 1.962574
177.6444 351.9789 348.6335 1.923987
177.6752 351.7446 349.1346 1.965862
177.7085 352.0018 349.0356 1.89203
177.738 352.1979 349.3269 2.133464
177.7708 351.9909 349.4521 1.951175
177.8019 351.8414 349.5914 1.90084
177.8318 351.8569 349.712 1.856375
177.8652 352.0199 349.9438 2.065662
177.8956 351.9558 350.1967 1.955758
177.9275 351.9558 350.5128 1.97057
177.9599 352.0038 350.7518 2.019733
177.9906 351.9181 350.9651 1.976309
178.0204 351.9518 351.0222 1.954756
178.0503 352.0134 351.0434 1.938302
178.0829 351.9779 350.9776 1.96446
178.1158 352.0166 350.9076 2.021864
178.1467 351.9865 350.8877 1.965469
178.178 352.0559 350.9281 2.012357
178.2073 352.0278 350.9048 1.994503
178.2381 352.0282 350.9241 1.97999
178.2686 352.0429 350.9384 1.966327
178.2983 351.9974 350.9679 1.948573
178.3316 352.0319 350.976 1.956275
178.3637 352.0388 351.001 1.968455
178.3952 352.0327 351.0101 1.989102
178.426 352.0402 351.0593 1.959137
178.456 352.0322 351.0304 1.975487
178.4861 352.0756 351.0922 1.943638
178.5194 352.0727 351.1425 1.938394
178.5527 352.0598 351.1122 1.961711
178.5857 352.0983 351.1854 1.918656
178.619 352.1182 351.218 1.919978
178.6517 352.087 351.2498 1.906147
178.6851 352.133 351.2733 1.916166
178.7167 352.1701 351.2738 1.907541
178.75 352.1361 351.2884 1.899861
178.7832 352.1513 351.3211 1.869609
178.8156 352.1439 351.3342 1.856737
178.8482 352.1361 351.3332 1.86054
178.8815 352.1653 351.3315 1.845959
178.9149 352.1815 351.3441 1.854092
178.9482 352.1707 351.3393 1.845828
178.981 352.1588 351.3475 1.828697
179.0144 352.1798 351.3476 1.815664
179.0453 352.1411 351.3524 1.808658
179.078 352.1256 351.3473 1.820452
179.1114 352.1277 351.3716 1.802703
179.1447 352.1313 351.3705 1.775304
179.1752 352.0969 351.3678 1.789872
179.2085 352.1403 351.3759 1.776738
179.2399 352.1103 351.443 1.780381
179.273 352.1031 351.4481 1.775044
179.304 352.126 351.4669 1.764346
179.3341 352.1005 351.4756 1.761099
179.3661 352.1417 351.4801 1.744412
179.3994 352.1291 351.4848 1.751054
179.4304 352.1179 351.5063 1.750164
179.4615 352.1123 351.4887 1.72365
179.4948 352.1 351.523 1.720207
179.5267 352.0955 351.5138 1.702157
179.5556 352.1106 351.5266 1.696583
179.5858 352.1679 351.608 1.695849
179.6174 352.1426 351.6173 1.681399
179.65 352.1531 351.6322 1.68332
179.6824 352.1454 351.6903 1.651572
179.7149 352.1488 351.6756 1.677588
179.7454 352.1574 351.6887 1.661038
179.7788 352.1443 351.717 1.661288
179.812 352.2307 351.7456 1.621067
179.8423 352.2418 351.7375 1.613734
179.8737 352.227 351.7321 1.629706
179.9056 352.2367 351.75 1.592331
179.9362 352.2445 351.7704 1.589489
179.9668 352.2471 351.7738 1.584033
179.9971 352.2643 351.7867 1.576806
180.0305 352.3202 351.849 1.574954
180.0638 352.3257 351.8524 1.55424
180.0942 352.3344 351.8529 1.547316
180.1261 352.3267 351.8601 1.556851
180.1571 352.3432 351.8902 1.546963
180.1868 352.3474 351.8996 1.521558
180.2164 352.4254 351.9438 1.513366
180.2496 352.4208 351.9369 1.520934
180.2797 352.4207 351.9674 1.493374
180.3122 352.4028 351.984 1.485357
180.3447 352.4104 351.9804 1.486983
180.3754 352.3888 352.0304 1.47601
180.4087 352.3915 352.0092 1.456765
180.4413 352.4127 352.0043 1.465818
180.4741 352.4041 352.0112 1.457822
180.5074 352.443 352.0276 1.43899
180.5384 352.3968 352.0338 1.455171
180.5688 352.4087 352.0237 1.447093
180.5974 352.4024 352.0374 1.453527
180.6301 352.4034 352.0382 1.447353
180.6604 352.3927 352.0319 1.455438
180.6909 352.402 352.041 1.425703
180.7242 352.4215 352.0504 1.426512
180.7564 352.4313 352.0371 1.448231
180.7857 352.4155 352.0603 1.442704
180.8185 352.4228 352.0608 1.44214
180.8492 352.4007 352.0502 1.434268
180.8794 352.4219 352.037 1.422428
180.9128 352.4261 352.0658 1.421099
180.9444 352.4335 352.0511 1.413349
180.9778 352.4116 352.0605 1.42201
181.0111 352.4278 352.0457 1.419538
181.0442 352.404 352.0706 1.391443
181.0751 352.3965 352.073 1.379952
181.1084 352.4253 352.0729 1.41256
181.1418 352.4326 352.0871 1.384541
181.1725 352.499 352.1777 1.357228
181.204 352.5163 352.179 1.363368
181.2352 352.5144 352.1793 1.32807
181.2668 352.5194 352.1807 1.308629
181.3001 352.4875 352.2075 1.30447
181.3335 352.4991 352.1859 1.290424
181.3623 352.5163 352.1873 1.27391
181.393 352.4947 352.2081 1.266243
181.4261 352.4814 352.2077 1.255237
181.4595 352.5077 352.214 1.246667
181.4928 352.4866 352.214 1.238454
181.5262 352.495 352.2281 1.232919
181.5573 352.503 352.2141 1.237601
181.589 352.5131 352.2215 1.239303
181.6217 352.523 352.2465 1.206515
181.6513 352.4969 352.2232 1.210163
181.6812 352.4388 352.2363 1.164777
181.7146 352.4096 352.2328 1.165976
181.7454 352.3541 352.2188 1.211704
181.7761 352.2991 352.1552 1.232284
181.8094 352.2563 352.1295 1.232759
181.8428 352.2294 352.0889 1.26692
181.8746 352.135 352.0536 1.269874
181.9065 352.0938 352.0544 1.31503
181.9379 352.0643 352.0093 1.304698
181.9695 352.0463 352.0882 1.296188
182.0028 352.0631 352.0652 1.31723
182.035 352.0628 352.0578 1.326515
182.0664 352.0145 352.0342 1.329004
182.0981 351.9919 352.038 1.331025
182.1274 352.0001 352.0535 1.334764
182.1608 351.9653 352.0412 1.337116
182.1941 352.0039 352.0399 1.338359
182.2262 351.9501 352.0763 1.351859
182.2596 351.9436 352.0446 1.349091
182.2912 351.9632 352.0938 1.351961
182.3224 351.9091 352.1427 1.363154
182.3557 351.9387 352.0965 1.363685
182.389 351.9081 352.137 1.350536
182.4221 351.8693 352.13 1.343497
182.4554 351.8463 352.1409 1.344892
182.4887 351.8563 352.1617 1.344478
182.5221 351.8335 352.1774 1.348435
182.5544 351.8175 352.1634 1.326829
182.5864 351.807 352.1309 1.294703
182.6198 351.8222 352.1502 1.324443
182.6531 351.7993 352.1635 1.325254
182.6864 351.7769 352.1888 1.308466
182.7171 351.7693 352.2013 1.326728
182.7486 351.7872 352.1669 1.302514
182.7819 351.7946 352.1875 1.308968
182.8136 351.7874 352.2051 1.300102
182.8469 351.7864 352.1995 1.311088
182.8802 0 0 0
