時間[s] x軸周り[deg] y軸周り[deg] z軸周り[deg]
0 0 0 0
0.02 0 0 0
0.05333333 351.7155 355.0958 352.5107
0.08666666 351.4637 354.8842 352.7806
0.1181058 351.4854 354.8814 352.8133
0.1267838 351.5204 354.8575 352.8716
0.1364676 351.278 354.7317 352.7501
0.1478361 351.2654 354.7434 352.7425
0.1581502 351.2555 354.7518 352.7383
0.1698262 351.2751 354.7237 352.76
0.180687 351.2775 354.7281 352.7433
0.2089049 351.2961 354.7458 352.7661
0.2166651 351.3003 354.7345 352.774
0.2247402 351.3163 354.7987 352.796
0.2365138 351.3374 354.7746 352.8105
0.2469837 351.3472 354.7938 352.8319
0.258649 351.3573 354.7856 352.8398
0.2693167 351.3626 354.8142 352.844
0.2798128 351.358 354.7971 352.8615
0.2912413 351.1607 354.6497 352.7233
0.3028458 351.1594 354.6626 352.7124
0.3182032 351.1593 354.6623 352.7381
0.3271536 351.1488 354.6879 352.7383
0.336348 351.1605 354.6619 352.7438
0.3639084 351.1675 354.7066 352.7595
0.3724061 351.1675 354.6928 352.7656
0.3803707 351.1837 354.6701 352.7745
0.3911317 351.2051 354.6611 352.7695
0.4029232 351.222 354.6639 352.7764
0.4138305 351.232 354.6626 352.808
0.4244988 351.2431 354.6641 352.8003
0.4365849 351.2476 354.6643 352.8066
0.4463053 351.2593 354.6866 352.8363
0.4581351 351.2563 354.6776 352.834
0.4679208 351.2793 354.6776 352.8561
0.4808971 351.282 354.6663 352.8476
0.4924695 351.3044 354.6819 352.8711
0.5213172 351.3063 354.6764 352.8628
0.5304041 351.3142 354.6498 352.8806
0.5384513 351.3136 354.6666 352.8863
0.5466081 351.3162 354.659 352.8972
0.5588289 351.3151 354.6613 352.8992
0.5703841 351.3401 354.663 352.9025
0.5802644 351.3404 354.6587 352.9276
0.591207 351.1367 354.4895 352.793
0.6041164 351.0963 354.5362 352.7884
0.6154597 351.0978 354.5137 352.7907
0.6270295 351.101 354.5281 352.8017
0.6394902 351.1186 354.5123 352.801
0.651015 351.1333 354.4937 352.8167
0.6839387 351.134 354.5244 352.8187
0.6926661 351.1451 354.5368 352.8354
0.7004046 351.1786 354.5827 352.8538
0.709201 351.1897 354.5983 352.8723
0.7211568 351.1938 354.6089 352.876
0.731289 351.2374 354.6551 352.9011
0.7420303 351.2326 354.6443 352.8971
0.7538081 351.2198 354.6384 352.9248
0.7649189 351.2381 354.6646 352.9344
0.7753078 351.2441 354.6786 352.9233
0.7866541 351.2633 354.6979 352.959
0.7986665 351.2699 354.6798 352.9646
0.8091733 351.2688 354.6948 352.9762
0.841343 351.2739 354.7036 352.9794
0.8492514 351.2751 354.7123 353.0087
0.8580704 351.304 354.7226 353.0266
0.8663861 351.0095 354.5632 352.8475
0.8751001 351.0288 354.5448 352.8607
0.8871055 350.9673 354.5338 352.8209
0.8974378 350.9692 354.513 352.8364
0.9089832 351.0042 354.477 352.865
0.921177 351.0057 354.5051 352.8579
0.9311082 351.02 354.5085 352.8806
0.942971 351.0182 354.5117 352.8813
0.954277 351.0128 354.5099 352.8724
0.9647568 351.0396 354.5491 352.8933
0.9942772 351.0373 354.5388 352.8977
1.003406 351.0226 354.5386 352.9024
1.011702 350.8672 354.4218 352.7927
1.020495 350.8743 354.4161 352.7946
1.030669 350.8704 354.4086 352.8053
1.043149 350.8716 354.3981 352.8032
1.053184 350.8847 354.429 352.808
1.064019 350.8892 354.4276 352.8054
1.075606 350.9142 354.4448 352.8393
1.08794 350.9279 354.4561 352.8441
1.098756 350.92 354.4521 352.8546
1.108771 350.951 354.4735 352.8579
1.120314 350.9636 354.4702 352.8572
1.151712 350.9693 354.5022 352.894
1.158961 350.9635 354.5056 352.8868
1.167003 351.0009 354.5335 352.9325
1.176422 350.9971 354.5241 352.9483
1.187297 350.8392 354.3356 352.7798
1.198161 350.8506 354.3321 352.7939
1.210153 350.8163 354.3563 352.8027
1.220722 350.8054 354.3547 352.7894
1.231338 350.8226 354.4167 352.8088
1.243057 350.7929 354.4005 352.8459
1.254046 350.8421 354.4138 352.8917
1.264825 350.8466 354.4698 352.8861
1.275798 350.8677 354.5046 352.8494
1.309131 350.8944 354.4832 352.8882
1.317322 350.9147 354.4772 352.9189
1.325535 350.8576 354.5189 353.022
1.334779 350.7296 354.4761 352.8765
1.343272 350.7922 354.327 352.8314
1.352748 350.8185 354.1395 352.7136
1.363935 350.8582 354.027 352.6471
1.374887 350.8613 353.7235 352.7375
1.385925 350.8727 353.5294 352.8264
1.396498 350.8106 353.6858 352.7789
1.407744 350.7657 354.0005 352.912
1.418005 350.6447 354.5567 353.0662
1.431392 350.4701 355.0798 353.1763
1.462253 350.6464 355.7009 353.3123
1.471121 350.8628 356.6417 353.1826
1.479016 351.5242 357.4797 352.1656
1.487789 351.9208 357.0788 351.846
1.497329 352.0782 356.3394 351.5947
1.508419 352.3156 355.3658 351.2562
1.519209 352.5095 354.719 350.5956
1.529773 352.7658 354.7005 350.0159
1.541236 352.7909 354.9979 349.349
1.553125 353.2071 355.033 348.8407
1.563362 353.5978 354.7191 348.3902
1.574706 353.8576 354.232 348.0806
1.586949 354.2252 353.7947 347.5731
1.613937 354.6656 353.5629 347.0473
1.623037 355.2574 353.3251 346.6021
1.633572 357.3118 352.6831 345.6244
1.645772 358.911 352.386 345.1016
1.657324 0.3152082 351.9621 344.9334
1.671412 1.642298 351.3758 345.0087
1.682281 2.905812 350.543 345.2664
1.693993 4.49309 349.5037 345.4883
1.706394 6.12849 348.5646 345.4854
1.715951 8.091677 347.5844 345.2938
1.727712 10.04351 346.7704 344.9354
1.738984 12.20953 345.8891 344.3751
1.772317 14.58517 344.6898 343.6035
1.780546 16.68356 343.6643 342.7917
1.7894 20.49633 340.6783 340.6339
1.79712 21.61544 339.2737 339.7909
1.806898 23.06887 337.4816 338.7758
1.81449 24.67703 335.4901 337.6006
1.8254 26.51035 333.8341 336.3024
1.836624 28.16105 332.4035 335.0388
1.846467 30.03055 331.1904 333.844
1.857977 31.78691 329.6675 332.4701
1.869944 34.15732 327.8386 330.8477
1.880269 36.10621 325.6194 328.922
1.89145 38.02265 322.3208 325.9365
1.921272 40.00814 318.8588 322.0183
1.928804 42.04572 316.2068 319.2836
1.937263 46.89839 312.0302 313.5544
1.946497 47.38177 310.0261 309.9829
1.958306 47.81369 307.43 306.9485
1.969869 48.23107 303.886 302.926
1.979787 49.7767 299.9833 298.476
1.991131 51.75638 296.3244 294.1978
2.002342 54.08587 293.3626 290.1168
2.013022 55.63874 291.5455 287.314
2.024545 57.16959 290.3208 285.5636
2.036597 57.12327 288.5774 283.6865
2.046894 57.18251 286.618 281.2813
2.073761 57.46925 284.6506 278.6022
2.081655 58.47835 282.7083 275.4903
2.09035 60.11739 280.2304 270.0365
2.103783 60.19679 279.6252 268.177
2.113232 60.16008 279.4055 266.603
2.124572 60.38813 279.6577 265.2088
2.136427 60.71576 280.6657 264.1223
2.146731 61.43837 280.5779 262.2627
2.157739 61.65896 280.45 260.3273
2.16934 61.74253 280.0822 258.4695
2.180342 61.79744 280.2943 257.0307
2.191989 61.6455 281.3224 256.3511
2.20286 62.02162 281.9681 255.5407
2.236193 62.30642 282.4419 254.6861
2.243617 62.64988 282.6422 253.885
2.252165 62.19205 282.3275 251.7597
2.260774 61.65126 282.1455 250.7068
2.269741 61.19178 282.084 250.0288
2.280849 61.10311 282.3759 249.9778
2.290693 60.93524 282.2395 249.3311
2.302716 60.77349 281.3678 248.0928
2.313432 60.39219 280.4346 246.8421
2.324409 60.01315 279.547 245.9281
2.337317 59.22684 278.8024 244.9378
2.346659 58.34953 278.0894 244.0875
2.358632 57.45305 277.1865 243.201
2.387575 56.62484 276.4074 242.4043
2.395287 55.96096 275.8847 241.9114
2.403429 54.75853 275.3565 241.5244
2.413374 54.04382 274.5605 240.9612
2.424015 53.41409 273.8267 240.4527
2.43584 53.22963 273.1338 240.2643
2.446868 53.29835 272.4862 239.9822
2.457843 53.32471 271.946 239.9066
2.46944 53.09879 271.77 240.2405
2.479907 52.9529 272.1093 241.0342
2.491628 52.76348 272.5402 242.019
2.503699 52.99484 273.1045 243.0176
2.513803 53.27464 273.4537 243.7781
2.542371 53.84456 273.8152 244.4053
2.550478 54.48621 273.9601 244.8001
2.558389 55.592 275.2093 246.393
2.571044 56.23814 276.8271 247.9541
2.579893 56.81001 278.1955 249.3875
2.592195 57.53923 279.6548 250.9252
2.604241 58.46569 280.929 252.2471
2.61554 58.94021 282.8301 254.3891
2.627291 59.46592 284.8889 256.0023
2.63977 60.24932 286.7003 257.9382
2.651818 60.29766 287.6571 259.3384
2.663025 60.40577 289.0732 261.1433
2.675392 60.30592 291.3814 263.8873
2.704535 59.86484 294.4142 266.919
2.718233 59.80458 296.473 268.876
2.725443 60.09523 298.9624 271.215
2.734336 60.59867 300.3832 272.6706
2.743014 61.16693 301.8871 274.2332
2.754565 61.52594 303.1496 275.6493
2.76433 61.55646 304.8909 277.6108
2.777073 61.40074 307.8977 280.5058
2.788383 61.21154 310.3089 282.7363
2.79862 61.04305 312.4469 284.5427
2.810124 60.78343 313.7861 285.6006
2.821017 60.59666 315.0993 286.6042
2.832507 60.26124 316.5307 287.8076
2.863844 59.54659 318.1713 289.2984
2.873041 58.49895 320.4564 291.557
2.881969 56.63816 324.9525 296.3623
2.891052 55.88475 327.2794 299.019
2.898914 55.25139 329.083 301.4156
2.909509 54.26495 330.0051 303.0019
2.920763 53.05936 330.3988 304.1764
2.933099 51.69142 330.7632 305.1912
2.943849 50.47652 331.7497 306.4731
2.954599 49.20058 333.045 308.0691
2.965453 48.00392 334.3524 309.8247
2.977279 46.7882 336.3335 311.9362
2.988051 45.38752 338.7086 314.344
3.015021 43.99162 341.0807 316.9524
3.024687 42.52142 343.4969 319.0826
3.033661 40.84592 347.4973 322.1951
3.043316 40.80542 348.4742 322.8952
3.054672 40.77445 349.6915 323.411
3.065002 40.58554 350.9864 323.9953
3.075845 40.1266 352.505 324.9719
3.087871 39.69391 354.018 326.2229
3.097531 39.29564 355.5153 327.809
3.110285 38.70514 357.1809 329.5759
3.121454 38.08503 358.6614 331.2159
3.132767 37.24846 0.1629728 332.805
3.143357 36.08047 1.765296 334.4021
3.172335 34.47489 3.461448 336.0127
3.179632 32.40086 5.399879 337.5378
3.188356 25.98808 10.11101 340.9416
3.199694 22.15012 11.91696 342.4279
3.210328 19.05934 13.32318 343.5525
3.222091 16.86063 14.39996 344.6885
3.235237 15.99806 14.60095 345.9002
3.244106 17.87466 14.50652 346.556
3.254084 21.25292 13.9893 346.7596
3.266037 25.94636 13.31412 346.6985
3.2772 28.62622 13.20348 347.0865
3.287598 29.84604 13.33967 347.8524
3.298525 30.15349 13.45181 348.7896
3.327643 30.16863 13.53498 349.6617
3.336174 30.18886 13.43914 350.3931
3.345189 30.64555 13.789 351.1629
3.355383 30.90289 14.04865 351.2546
3.364744 31.21059 14.48519 351.5326
3.376173 31.29823 14.60835 351.7203
3.38727 31.12837 15.55852 352.3582
3.399331 30.90876 15.70258 352.7941
3.410095 30.3885 15.66167 353.0793
3.421699 30.15811 15.96444 353.3988
3.432295 29.915 16.06494 353.5315
3.442871 29.51223 16.04157 353.3146
3.454823 29.30024 16.61886 353.3632
3.481461 28.76113 17.34695 353.4687
3.490632 28.12784 18.18759 353.5218
3.499532 26.58348 19.06064 353.5199
3.510466 25.86537 19.25636 353.6255
3.521453 25.34703 19.36181 353.7988
3.53185 24.87348 19.1984 353.9612
3.543452 24.5364 19.17669 354.2255
3.554243 24.17448 19.22379 354.4745
3.5651 23.9836 19.31503 354.735
3.575502 23.50612 19.22472 354.8755
3.587128 23.03969 19.12406 355.0091
3.598752 22.51628 19.12806 355.0667
3.611373 22.05701 19.08715 355.1165
3.64076 21.56358 18.95957 355.1716
3.649116 21.17527 18.88545 355.2002
3.658007 20.3426 18.65772 355.0501
3.66715 19.98088 18.3916 354.7474
3.677325 19.68284 18.15667 354.5328
3.689085 19.37085 17.85596 354.3672
3.699572 19.11215 17.45199 354.1445
3.711099 18.8109 16.85485 353.9275
3.721428 18.5133 16.32536 353.8287
3.733457 18.35041 15.69416 353.7504
3.743465 18.40939 15.1422 353.7992
3.758103 18.31515 14.23705 353.739
3.76652 18.3105 13.09801 353.5934
3.793283 18.54449 12.16207 353.577
3.802269 18.70705 10.79687 353.4752
3.810499 19.25772 8.216379 353.3267
3.822274 19.41232 6.932843 353.2458
3.832962 19.90641 5.796337 353.1849
3.845297 20.04298 4.497848 353.0813
3.855581 19.95608 3.037767 352.7047
3.865769 20.34864 1.863076 352.4157
3.877298 20.47727 0.820268 352.3765
3.888508 20.50597 359.2487 351.9525
3.899426 20.84254 358.0211 351.7579
3.910055 21.07963 356.5399 351.5112
3.922268 21.25029 354.9084 351.1932
3.953043 21.43139 353.3806 350.9932
3.961015 21.43424 351.6414 350.7428
3.969563 21.44711 348.1607 350.1119
3.97693 21.19846 346.3413 349.6636
3.988693 20.67684 344.4028 349.1161
3.999508 20.48907 342.7719 348.8307
4.010378 20.22923 341.391 348.7083
4.022209 19.97391 339.8936 348.5264
4.033585 19.76165 338.4866 348.4507
4.04424 19.51166 337.0114 348.3704
4.05482 19.2538 335.5959 348.3748
4.065362 19.03421 334.209 348.4139
4.077917 18.613 332.6602 348.248
4.106457 18.2462 331.2155 348.0729
4.113882 17.94619 329.7305 347.8434
4.122687 17.47219 326.4457 347.413
4.13236 17.30254 324.6767 347.2618
4.143693 17.16363 322.8919 347.2025
4.155585 17.0178 320.9957 347.2845
4.166805 16.85642 319.0948 347.2087
4.177935 16.63834 317.1656 347.0964
4.18854 16.31561 315.2656 346.9922
4.198688 16.19205 313.5025 347.0956
4.210803 16.06813 311.6155 347.027
4.221703 16.23361 309.8777 347.2589
4.235073 16.11503 307.894 347.3149
4.267309 16.04391 306.1467 347.3926
4.275225 16.05986 304.602 347.5528
4.282636 15.69942 301.6939 347.5372
4.291269 15.41034 300.4034 347.5059
4.29913 15.06348 299.0502 347.5463
4.311585 14.52734 297.7017 347.4412
4.322378 14.10906 296.7514 347.4029
4.334085 13.65473 295.8286 347.3835
4.344219 13.22966 294.9822 347.3121
4.355227 12.80168 294.1483 347.2641
4.365402 12.32052 293.4525 347.2567
4.376864 11.89632 292.8489 347.2663
4.388369 11.49072 292.4789 347.2623
4.416662 11.14476 292.1045 347.3613
4.424489 10.83731 291.7255 347.4502
4.432229 10.55148 291.8494 348.0759
4.44413 10.32237 292.2015 348.3736
4.455299 10.06075 292.7389 348.701
4.465158 9.71507 293.4856 348.9856
4.47728 9.190848 294.3276 349.3108
4.489146 8.633729 295.2757 349.5401
4.499417 8.057784 296.6245 349.737
4.510034 7.563106 297.8734 349.9399
4.521917 7.151323 299.3035 350.1579
4.533034 6.73458 300.7348 350.4014
4.543819 6.276488 302.1803 350.6888
4.576029 5.759422 303.8515 351.0434
4.58459 5.266388 305.3674 351.3176
4.592202 3.87406 308.8715 351.9329
4.60072 3.251292 310.8667 352.2101
4.609875 2.889975 312.6258 352.5597
4.621784 2.055033 315.2934 352.9559
4.631962 1.423835 317.7091 353.4153
4.643126 0.9057693 319.903 353.7056
4.653675 0.4838901 322.0775 354.0704
4.664463 359.7935 324.2592 354.464
4.67579 358.8994 326.5161 354.6969
4.687532 358.1906 328.7921 354.9243
4.698147 357.4016 331.0248 354.9352
4.73148 356.4766 333.1877 354.9933
4.739888 355.3626 335.4579 354.9495
4.747958 353.1347 339.8897 354.8916
4.756672 352.2003 342.0428 355.0714
4.765616 350.9572 343.994 355.3994
4.776178 349.8878 345.8919 355.6096
4.787214 348.7585 347.6389 355.827
4.797003 347.5713 349.4725 355.9699
4.808166 346.257 351.056 356.1848
4.82017 345.2717 352.9117 356.3463
4.831095 344.5786 354.5191 356.3981
4.841725 344.0663 356.0156 356.456
4.853566 343.6024 357.3805 356.6936
4.88242 342.9945 358.6771 357.1148
4.89019 342.3804 359.9272 357.4608
4.898172 341.8331 2.584593 358.4964
4.909641 341.2009 4.188449 358.7675
4.920325 340.3553 5.766654 358.9253
4.931467 339.8848 7.581366 358.9896
4.941393 339.3133 9.59304 359.0681
4.952898 338.5963 11.64898 359.0207
4.963391 337.9544 13.39256 359.0804
4.976758 337.371 15.2751 359.2186
4.988211 336.6716 17.03542 359.3115
4.998319 336.05 18.69473 359.3405
5.009924 335.5659 20.26477 359.338
5.036519 335.2068 21.74427 359.3356
5.045782 334.8584 23.30684 359.3075
5.053948 334.6586 26.62928 359.2996
5.06371 334.8748 28.06934 359.6265
5.075696 335.0102 29.42375 0.1992775
5.086672 335.1751 30.77435 0.9713125
5.097146 335.3321 32.06784 1.724149
5.10797 335.5091 33.45866 2.362949
5.12031 335.8524 34.6453 3.033808
5.131096 336.0251 36.39826 3.051033
5.142136 336.1357 38.27948 2.84433
5.153399 336.2176 40.25123 2.510699
5.163905 336.3309 42.24415 2.118331
5.196258 336.4334 44.15395 1.863515
5.204354 336.4383 45.93567 1.779439
5.212008 336.7978 49.56086 2.189408
5.220023 337.1091 51.33054 2.395677
5.231141 337.4626 53.09052 2.682532
5.242011 337.8911 54.86294 2.96628
5.253123 338.3699 56.59654 3.240656
5.263402 338.6996 58.32564 3.415774
5.275149 338.9494 60.04358 3.511788
5.287152 339.0887 61.94943 3.516741
5.297451 339.3504 63.7153 3.570738
5.308402 339.5716 65.4602 3.590723
5.320804 339.8761 67.17268 3.709758
5.346726 340.213 68.90716 3.7898
5.354807 340.7605 70.64556 3.92064
5.363258 341.6419 72.84912 4.180387
5.372315 342.2706 73.98273 4.386927
5.379426 343.0188 75.46838 4.677852
5.387653 343.8795 76.80612 5.003157
5.397121 344.782 78.0449 5.333442
5.407891 345.8815 79.08225 5.715888
5.419795 347.061 80.15399 6.036526
5.430076 348.284 81.06966 6.398378
5.442079 349.7851 82.02716 6.685682
5.453336 351.1534 82.85674 6.920415
5.465436 352.6004 83.48633 7.209431
5.474633 353.9437 84.12441 7.452437
5.503271 355.3251 84.70191 7.62787
5.511052 356.75 85.29076 7.837213
5.520145 359.8855 86.40989 8.480076
5.530956 1.507708 86.90746 8.894265
5.542088 3.295827 87.28113 9.321945
5.553606 5.061091 87.5472 9.766697
5.563503 6.920239 87.56429 10.18354
5.575044 8.812045 87.4099 10.61431
5.586092 10.81237 87.18697 11.05132
5.596974 12.65347 86.86744 11.35457
5.607549 14.47221 86.2642 11.46855
5.618318 16.22755 85.63278 11.53173
5.630147 17.9297 84.79632 11.55341
5.66348 19.67342 83.97043 11.6375
5.671663 21.30809 83.19711 11.69934
5.679574 24.3864 81.69398 11.72101
5.688368 25.81941 80.757 11.4615
5.696064 27.17954 79.55097 11.00336
5.707585 28.31586 78.17813 10.50604
5.719213 29.18424 76.87171 10.04954
5.729611 29.98446 75.68818 9.697862
5.740526 30.71096 74.48685 9.349763
5.752527 31.56323 73.16953 8.877664
5.762641 32.25505 71.91617 8.386364
5.773683 32.85154 70.56032 7.852592
5.785153 33.39023 69.20483 7.393822
5.812353 33.77935 67.77379 6.941726
5.820771 34.17691 66.45677 6.500543
5.829441 34.88916 63.30355 5.36247
5.840944 35.1376 61.41253 4.771815
5.852162 35.42026 59.64191 4.296577
5.861923 35.72486 57.82792 3.823975
5.8737 35.98131 55.97522 3.367651
5.884195 36.15343 54.09356 2.835526
5.895514 36.15756 52.13999 2.130563
5.906458 36.06384 50.43644 1.451671
5.919691 35.99575 48.54607 0.621631
5.92966 35.84665 46.85227 359.7818
5.940374 35.61944 45.19401 359.0509
5.971672 35.48935 43.50722 358.4137
5.980199 35.4134 41.86126 357.8793
5.988514 35.2863 38.28532 356.9533
5.995996 35.11315 36.13064 356.3883
6.007503 34.87865 34.13538 355.815
6.019138 34.71431 32.14389 355.2476
6.029581 34.64652 30.33152 354.7895
6.039865 34.63795 28.49111 354.3318
6.051357 34.67449 26.58982 353.8661
6.062641 34.54448 24.54582 353.3733
6.073836 34.19045 22.53722 352.9388
6.085441 33.88067 21.10889 352.7038
6.096503 33.68582 19.6899 352.3682
6.129579 33.54782 18.46762 351.9949
6.137636 33.40723 17.28625 351.7137
6.14555 33.04718 15.20565 351.4156
6.154354 32.927 14.34896 351.4576
6.161722 32.82408 13.50661 351.5027
6.17317 32.63442 12.6743 351.4961
6.185743 32.40444 11.84533 351.454
6.195797 32.32552 11.10538 351.3506
6.207495 32.25671 10.41937 351.3016
6.218351 32.18712 9.857225 351.3093
6.229582 32.1181 9.187392 351.2773
6.240516 32.03645 8.622746 351.2895
6.251987 31.9674 8.093592 351.3268
6.280427 31.89635 7.643251 351.4537
6.289303 31.85142 7.326612 351.5813
6.297903 31.7894 6.982582 351.9266
6.307191 31.71268 7.051708 352.172
6.317963 31.67785 7.16797 352.3511
6.328807 31.5757 7.280485 352.5123
6.340946 31.38455 7.408314 352.6851
6.352366 31.18606 7.517048 352.8008
6.362291 30.9286 7.713877 352.9745
6.373453 30.76471 7.966414 353.2245
6.384796 30.66562 8.251788 353.4754
6.395515 30.53921 8.530153 353.7173
6.407357 30.35349 8.817028 354.002
6.438324 30.0976 9.252635 354.3436
6.44638 29.83872 9.767739 354.72
6.455265 29.20384 10.73913 355.3884
6.462942 28.70798 11.17139 355.6205
6.473929 28.14848 11.67167 355.8304
6.485425 27.52695 12.22543 356.0564
6.495824 26.87125 12.79374 356.3679
6.506972 26.18773 13.29143 356.5617
6.519497 25.47475 13.83201 356.8392
6.52948 24.62326 14.41345 357.0684
6.54027 23.72851 14.94433 357.2935
6.552127 22.63631 15.45988 357.5347
6.56206 21.51956 15.90887 357.7495
6.592442 20.15398 16.38959 357.9846
6.601429 18.99748 16.75905 358.1046
6.609092 16.31455 17.84133 358.367
6.620894 15.1496 18.45644 358.4642
6.631644 14.11183 19.0651 358.6454
6.647477 12.96934 19.64994 358.8205
6.655768 11.69113 20.19828 359.0699
6.665302 10.39643 20.72002 359.3133
6.675708 9.054101 21.15592 359.563
6.686604 7.77574 21.40623 359.7513
6.698089 6.284358 21.69974 359.8825
6.710177 4.907578 22.02806 359.8922
6.721094 3.666605 22.46798 359.8168
6.749218 2.635494 22.86706 359.7876
6.757298 1.691329 23.25157 359.8573
6.765149 359.6912 23.79792 0.1758364
6.775777 358.6436 23.97527 0.3090243
6.787914 357.7964 24.04475 0.3050305
6.797822 356.9345 24.18143 0.2753471
6.808938 356.2063 24.26554 0.2517326
6.82011 355.5339 24.34353 0.2124674
6.830647 354.8735 24.45975 0.2043811
6.842911 354.3723 24.54151 0.2909835
6.854685 353.8085 24.59025 0.405583
6.864923 353.3395 24.5932 0.5332945
6.875949 352.9529 24.63061 0.6460131
6.907146 352.6651 24.64942 0.751616
6.91463 352.3976 24.65195 0.8293865
6.922894 352.1189 24.67338 0.9078785
6.931844 351.9707 24.62516 0.8654503
6.943152 351.9241 24.58062 0.7542778
6.954285 351.9034 24.55317 0.6800268
6.964152 352.074 24.5367 0.6261029
6.976577 352.213 24.50731 0.616753
6.987652 352.4989 24.45153 0.651484
6.998605 352.8223 24.40897 0.6965538
7.009461 353.2692 24.33601 0.7330208
7.021843 353.7982 24.26028 0.7760328
7.031505 354.2804 24.17916 0.7336859
7.059128 354.9013 24.02222 0.6022577
7.067575 355.5202 23.82271 0.5091841
7.076158 357.1794 23.29344 0.4836538
7.086684 358.1846 22.92193 0.4457126
7.099016 359.4032 22.4611 0.3619721
7.109257 0.526502 22.02468 0.3082805
7.12139 1.83822 21.55469 0.3262307
7.13098 3.145404 21.13312 0.3323149
7.142096 4.714165 20.74728 0.3788386
7.1539 6.270452 20.42423 0.3782984
7.169066 7.917945 20.23313 0.4408737
7.17654 9.556887 20.0559 0.4738149
7.188249 11.00912 19.9922 0.4766778
7.215771 12.40277 20.00835 0.4042035
7.224013 13.69874 19.98333 0.2479007
7.232078 16.01717 20.12369 359.8737
7.242965 17.22798 20.14747 359.7625
7.254661 18.40349 20.15975 359.7502
7.265299 19.61255 20.10583 359.7659
7.275996 20.84099 20.07375 359.793
7.287472 21.97108 19.99985 359.7878
7.298191 22.96288 19.92437 359.7518
7.309126 23.89621 19.90551 359.6996
7.320781 24.75744 19.90107 359.5868
7.331516 25.6204 19.94712 359.4762
7.343122 26.37209 20.02061 359.3955
7.371479 27.10384 20.06466 359.2621
7.378898 27.92026 20.10635 359.1736
7.388221 29.59128 20.19906 359.0511
7.397042 30.34036 20.38293 359.0678
7.41072 31.18798 20.57641 359.0477
7.421098 32.07056 20.69662 358.9758
7.431736 33.00647 20.7567 358.886
7.442379 34.1478 20.77416 358.6489
7.453772 35.3096 20.74579 358.3226
7.464653 36.76041 20.72206 358.01
7.474952 38.24891 20.68269 357.7812
7.487796 40.0557 20.31792 357.4737
7.498557 41.56592 19.91669 357.2151
7.525162 42.97527 19.50472 356.9675
7.53318 44.23921 19.134 356.7082
7.542543 46.63896 18.26038 356.0911
7.553588 47.32157 17.82398 355.759
7.565325 47.91982 17.3008 355.3156
7.575604 48.59164 16.83129 354.8334
7.587886 49.06244 16.59132 354.4497
7.599308 49.92379 16.73071 354.1572
7.610944 50.84061 16.9271 353.8857
7.623848 51.2705 17.13489 353.6898
7.637113 51.4467 17.526 353.6135
7.647991 51.4582 17.79233 353.5885
7.65742 51.42324 17.82028 353.5074
7.690202 51.12495 17.82152 353.5526
7.697833 50.88602 17.99364 353.7308
7.70594 50.44656 17.29267 353.1035
7.714426 50.12144 17.27384 352.7822
7.724066 49.09462 17.84943 352.8131
7.735398 47.80342 18.89027 353.0681
7.746157 46.77413 19.98483 353.2964
7.756937 45.75011 21.02752 353.4666
7.768998 44.69701 22.19772 353.7531
7.779334 43.62117 23.23895 354.0937
7.791186 42.63012 24.36099 354.4393
7.803173 41.92192 25.41465 354.8614
7.814063 41.27127 26.11956 355.0314
7.842293 40.54673 26.64755 355.1851
7.852028 39.74451 27.13114 355.4421
7.859952 38.63877 28.22446 356.4059
7.869085 38.14804 28.20379 356.4232
7.879636 37.47243 27.63736 356.0127
7.89103 36.70349 26.75661 355.418
7.901833 36.00549 26.02339 354.9951
7.914718 35.47604 25.23728 354.6602
7.923821 35.21622 24.57115 354.5706
7.936491 34.92665 24.04344 354.6555
7.945911 34.79095 23.73007 354.8348
7.958455 34.63465 23.40792 354.8027
7.968798 34.57441 23.33604 354.8086
7.996899 34.44624 23.39099 354.796
8.005462 34.13299 23.39118 354.7366
8.013875 33.03981 23.03956 354.6376
8.023988 32.48734 22.76996 354.6285
8.034969 31.9751 22.39876 354.4878
8.04577 31.46261 21.89928 354.2281
8.057247 30.9095 21.35863 353.9212
8.068938 30.32166 20.90594 353.687
8.080198 29.72734 20.50279 353.5334
8.091103 29.19163 20.19712 353.539
8.102448 28.69982 20.01988 353.6448
8.113336 28.25928 19.9161 353.8217
8.123804 27.90552 19.80626 354.0454
8.157138 27.54675 19.65061 354.2148
8.165178 27.11481 19.28959 354.2105
8.173133 26.39261 18.77524 354.3275
8.182175 26.22771 18.80799 354.4571
8.190483 26.14938 18.81088 354.5844
8.198915 26.16812 18.88439 354.7293
8.207972 26.23574 18.99237 354.8521
8.220092 26.30947 18.95713 354.87
8.231905 26.40058 18.70687 354.8071
8.242627 26.49025 18.47247 354.7964
8.253309 26.53013 18.34656 354.871
8.264773 26.59337 18.1284 354.943
8.275982 26.7507 17.80037 354.9511
8.302489 27.04734 17.43013 354.8895
8.310194 27.51287 17.13737 354.8268
8.320064 28.80703 16.59204 354.8072
8.331791 29.46711 16.23105 354.7535
8.342159 30.10628 15.65755 354.6861
8.352897 30.64932 15.08085 354.6373
8.363559 31.21086 14.52042 354.6004
8.376011 31.88182 13.95427 354.5297
8.386415 32.46761 13.47386 354.3915
8.397535 33.09078 12.9951 354.1455
8.408886 33.65827 12.47876 353.8623
8.419644 33.99347 11.96421 353.5942
8.431485 34.1465 11.6388 353.5202
8.459969 34.16303 11.57139 353.6975
8.467993 34.30249 11.48722 353.8154
8.475893 34.62407 11.49317 354.0999
8.486959 34.90955 11.51361 354.2343
8.49754 35.29641 11.77787 354.4252
8.508323 35.67129 12.14151 354.6352
8.519465 35.93861 12.57111 354.8707
8.531288 36.06019 12.91675 355.0632
8.542291 35.82887 12.80142 355.0832
8.553185 35.92999 13.12785 355.3973
8.564482 35.91669 14.24035 356.1612
8.575138 35.88818 14.72023 356.576
8.586775 36.03139 14.96103 356.6071
8.620108 35.96502 15.11619 356.6214
8.627945 35.72985 15.52645 356.8716
8.636324 35.01589 16.5 357.3139
8.645796 34.42937 17.12045 357.5643
8.656981 33.99786 17.80629 357.7175
8.669879 33.63497 18.1263 357.5224
8.681806 33.52064 18.18522 357.1935
8.692965 33.32962 18.02125 356.8867
8.704136 33.13028 17.70515 356.7558
8.715717 32.79818 17.39401 356.7736
8.726361 32.45611 17.02256 356.8896
8.738085 32.09943 16.71121 357.0539
8.764718 31.75447 16.42294 357.2031
8.772946 31.5121 16.24585 357.3304
8.782874 31.13149 15.88316 357.4084
8.79256 30.89387 15.67475 357.3762
8.804695 30.56392 15.49438 357.2723
8.815374 30.20274 15.25387 357.128
8.826864 29.77033 14.97773 356.8772
8.836761 29.31975 14.61241 356.5889
8.848858 28.88175 14.22433 356.3449
8.859863 28.5377 13.80675 356.207
8.870758 28.2236 13.3563 356.1223
8.881997 27.87928 12.71169 356.0193
8.892631 27.38826 11.91743 355.8571
8.920383 26.86802 11.09212 355.6941
8.928801 26.31952 10.39454 355.5195
8.937794 25.05491 8.787819 355.05
8.949098 24.35211 8.095178 354.8664
8.959662 23.6045 7.399508 354.7491
8.970364 22.7839 6.680718 354.6365
8.98167 21.90174 6.073543 354.6332
8.991517 21.00513 5.417049 354.6736
9.004678 20.05194 4.798571 354.591
9.016177 19.09302 4.135194 354.3531
9.026466 18.15941 3.484287 354.1693
9.037305 17.30669 2.870702 354.0138
9.048676 16.49913 2.285278 353.838
9.08064 15.77932 1.788177 353.7501
9.088786 15.10595 1.282449 353.7346
9.09597 13.47255 0.3949522 353.8368
9.104626 12.5417 0.09301329 353.8968
9.11595 11.49783 359.8025 353.9604
9.126341 10.37767 359.6615 354.0594
9.137497 9.257957 359.5275 354.1662
9.148665 8.08751 359.5025 354.2884
9.159387 6.910153 359.4754 354.4088
9.170035 5.606694 359.4723 354.5977
9.182197 4.295072 359.6436 354.8137
9.192441 2.968991 359.7214 354.9731
9.205702 1.509067 359.8534 355.1883
9.232088 0.09833078 359.9005 355.4015
9.239841 358.8387 359.9628 355.618
9.249314 356.6138 359.8976 355.9674
9.259092 355.6819 359.8972 356.187
9.270658 354.8652 359.8098 356.402
9.282278 354.2105 359.7194 356.6931
9.29292 353.4821 359.774 356.9626
9.30513 352.7737 359.8558 357.0471
9.315755 352.161 0.00202897 357.0639
9.326444 351.7188 0.1352631 357.0668
9.338003 351.46 0.2143832 357.0599
9.349207 351.2544 0.2880894 357.1484
9.359358 351.2686 0.4356076 357.2974
9.387294 351.3419 0.5608745 357.4059
9.395066 351.629 0.7044248 357.5281
9.404189 352.3939 0.6156088 357.8184
9.415741 352.9594 0.6156526 357.9088
9.426025 353.7464 0.6204782 358.0003
9.438174 354.6466 0.5675821 358.1032
9.448926 355.6196 0.5098897 358.1797
9.459417 356.8618 0.392204 358.3331
9.469931 358.089 0.2817613 358.5143
9.481589 359.4427 0.3543103 358.7137
9.493227 0.9226981 0.5062767 358.7888
9.504233 2.432378 0.534337 358.8224
9.515449 4.06169 0.6104353 358.8089
9.547588 5.551101 0.7033421 358.7658
9.555137 7.13918 0.8007838 358.6526
9.564027 10.67536 0.9506482 358.4929
9.572131 12.55023 1.040513 358.4323
9.582653 14.77256 0.9987212 358.4158
9.592467 16.58959 1.071383 358.4821
9.603744 18.34217 1.281832 358.5536
9.616203 20.20949 1.444818 358.5862
9.627164 22.05024 1.402447 358.51
9.637446 23.8952 1.28818 358.4397
9.648676 25.55913 1.140394 358.2852
9.658935 27.004 1.016355 358.1027
9.670894 28.41186 0.7636717 357.7744
9.698253 29.97832 0.4925843 357.3288
9.70637 31.62528 0.2536959 356.8544
9.715291 34.67208 359.978 356.3326
9.726624 36.22223 359.9655 356.1192
9.73757 37.85705 359.9374 355.8427
9.74805 39.52586 0.0255165 355.6117
9.759274 41.12669 0.1201172 355.3772
9.769619 42.50618 359.9038 354.8755
9.780506 43.49611 359.5711 354.259
9.79116 44.15038 359.3979 353.6217
9.802606 44.66668 359.3591 353.1217
9.814764 45.16904 359.5984 352.6696
9.825173 45.80544 359.9517 352.2068
9.854398 46.2822 0.7449136 351.9112
9.862112 46.61313 1.623528 351.704
9.870478 46.31242 3.301584 351.084
9.880821 45.73507 4.179637 350.8993
9.89213 45.30684 4.909355 350.9068
9.903528 44.91704 5.586763 351.0017
9.913898 44.72111 6.162517 351.1393
9.92494 44.8354 6.673101 351.1625
9.937754 45.11063 6.912424 350.8795
9.948957 45.63699 6.912035 350.2575
9.958332 46.23356 7.136355 349.6269
9.969696 46.88857 7.592576 349.0817
9.981664 47.1436 8.248759 348.8281
10.00769 46.99011 8.927063 348.7351
10.01611 46.4384 9.510103 348.6971
10.02503 44.72579 10.76604 348.754
10.03656 44.07045 11.38561 348.6118
10.04749 43.19259 11.98418 348.4787
10.06057 42.45509 12.50635 348.3922
10.06979 41.90405 13.03438 348.4156
10.0807 41.492 13.50838 348.4448
10.09162 41.01691 13.7509 348.278
10.10363 40.95369 13.75094 347.877
10.11404 41.2561 13.64044 347.3701
10.12595 41.61566 13.60162 346.8919
10.13634 42.13823 9.278659 341.7447
10.16341 43.99877 7.832676 340.0636
10.1711 45.75375 6.376625 338.2149
10.18159 49.6342 2.95141 334.4825
10.19205 51.6209 1.24419 332.435
10.20291 54.15121 1.152146 332.7696
10.21438 56.36861 359.3134 330.4777
10.22466 57.29309 356.5134 327.2979
10.23552 56.80349 357.1787 327.5804
10.24774 54.62697 359.7883 329.5166
10.25867 48.43777 4.977337 334.432
10.26957 42.46896 10.48925 340.8858
10.2813 39.30774 13.28901 344.6841
10.29189 40.49165 13.05288 344.9299
10.31945 42.28041 12.84612 344.9817
10.32712 42.52981 12.82514 344.8524
10.33623 42.36751 14.18404 344.9008
10.34768 43.00523 15.07872 344.9497
10.35848 43.30726 15.50759 344.7917
10.36934 43.18389 16.52258 345.02
10.38056 42.0994 17.60585 345.7771
10.3911 40.14585 18.77725 346.7238
10.40288 38.58852 19.66146 347.593
10.41488 37.84677 19.98553 348.2177
10.42505 37.77982 19.92303 348.3833
10.43594 37.49407 19.86786 348.444
10.44804 36.75116 19.89591 348.5052
10.47565 35.4914 20.35486 348.7471
10.48323 34.13707 21.37347 349.3177
10.49226 31.4662 23.46902 350.4876
10.50331 30.12672 24.11015 350.8541
10.51519 29.19383 24.34944 350.9213
10.52529 28.56383 24.41027 350.8318
10.53596 27.80371 24.65039 350.8888
10.54745 26.62016 25.07753 350.9946
10.55746 25.26947 25.7043 351.1103
10.57025 23.65416 26.52487 351.2405
10.58329 22.52604 27.17893 351.3011
10.59288 21.39705 27.73998 351.2298
10.60485 20.37062 28.18312 351.1517
10.6356 19.36471 28.64345 351.1557
10.6438 18.27718 29.44329 351.242
10.65236 15.9714 30.87189 351.4146
10.6601 14.66893 31.39495 351.4253
10.67171 13.41217 31.86759 351.4529
10.68364 12.17461 32.31621 351.4428
10.69344 11.05729 32.72766 351.3448
10.7045 9.956692 33.1694 351.2608
10.7156 8.702741 33.67929 351.3376
10.72773 6.956301 34.24825 351.5841
10.73832 5.303857 34.64474 351.8652
10.74941 3.610532 34.9976 352.2276
10.76043 2.241352 35.31533 352.5347
10.78754 1.142858 35.55479 352.9387
10.79484 0.1033502 35.78209 353.2781
10.80573 358.228 36.16293 353.9272
10.81702 357.5791 36.236 354.1011
10.82712 357.086 36.14363 354.2387
10.83794 356.8745 36.22082 354.3275
10.84914 356.8987 36.24532 354.3513
10.86027 356.8337 36.0737 354.5413
10.87129 357.164 35.83773 354.7716
10.88181 357.8079 35.52471 355.0335
10.89372 358.3768 35.2415 355.1848
10.90567 358.7577 34.91253 355.3488
10.91615 359.212 34.61274 355.4722
10.94281 359.6795 34.35745 355.5979
10.95115 0.06261471 34.11738 355.7526
10.95964 0.9760235 33.55827 356.1943
10.97142 1.379983 33.41517 356.4621
10.98366 1.543475 33.2313 356.7578
10.99333 1.580757 32.99258 357.0494
11.0049 1.655624 32.78909 357.344
11.01561 1.615314 32.59724 357.5727
11.02685 1.423646 32.40385 357.8353
11.03772 1.144122 32.29157 358.1265
11.04944 0.8335321 32.31398 358.4217
11.0603 0.5163511 32.4012 358.6613
11.0713 0.09169906 32.44489 358.865
11.10463 359.6812 32.41327 359.1271
11.11279 359.3947 32.34792 359.3818
11.12113 359.0378 32.38727 0.0444644
11.1292 358.9455 32.41707 0.504911
11.13815 358.9894 32.5589 1.001052
11.14913 358.2325 32.35503 0.9367017
11.15933 358.5803 32.3213 1.391843
11.1698 359.654 31.48688 1.033334
11.18271 0.2877769 31.58747 0.5899531
11.19309 0.006895343 31.81454 0.9348428
11.20384 359.7895 32.49489 1.505337
11.21583 0.3448234 33.13519 1.895584
11.22706 1.29845 33.51201 2.345871
11.25407 1.674571 33.44279 2.837536
11.26249 2.082734 33.24967 3.287857
11.27081 3.016013 33.55679 3.532266
11.28271 2.912026 33.84206 3.688153
11.29338 2.801499 34.09841 4.017856
11.30385 2.797483 34.18207 4.232127
11.3152 2.94429 34.1684 4.361473
11.32694 2.980742 34.04449 4.614401
11.33706 3.030745 33.90247 4.864308
11.34869 3.287082 33.65927 5.076159
11.35972 3.575798 33.3691 5.233805
11.37036 3.858856 32.95081 5.515279
11.38329 3.821276 32.56383 5.802615
11.41238 5.030574 31.14795 3.262092
11.42103 5.218085 30.82615 3.553311
11.43022 5.433081 29.2625 4.677507
11.4381 5.650208 28.92444 5.052318
11.44975 5.290699 28.63593 5.927958
11.45941 5.255064 28.44118 6.448635
11.47077 4.994324 28.32644 7.215238
11.48189 4.848932 28.21922 7.889138
11.49341 4.826591 28.13381 8.695857
11.50457 4.701213 28.12187 9.480281
11.51637 4.349309 28.2509 10.11643
11.52686 4.656788 26.22325 8.133157
11.53742 4.322162 26.18994 8.566655
11.57075 3.905976 26.15625 9.509522
11.57837 3.670329 25.84393 9.886055
11.58729 3.435538 25.44845 10.66737
11.59572 4.25611 23.86724 9.078847
11.6063 4.374884 23.05925 8.872688
11.61816 4.70924 21.87028 8.804728
11.62985 4.778247 21.02646 9.30914
11.64215 5.279044 20.12787 9.266147
11.65407 5.657011 19.62347 9.723923
11.66647 6.078794 18.95094 10.14298
11.67744 6.949183 17.99222 10.37932
11.69066 8.198366 17.17752 10.88459
11.71835 9.278308 16.10558 10.87656
11.72643 10.41333 15.21904 10.72332
11.73593 12.54221 14.42808 10.47996
11.74786 13.50167 14.33796 10.53644
11.75775 14.68253 14.03566 10.49795
11.76864 15.86507 13.76269 10.79162
11.77977 16.66396 13.36012 10.86982
11.79169 17.42839 13.1203 10.91775
11.80205 18.48067 12.92695 10.86994
11.81345 19.68688 13.28556 11.18145
11.82442 20.2732 13.8908 12.25626
11.83586 21.21001 14.17906 12.72142
11.84728 21.08276 13.32362 13.23748
11.87503 21.29835 12.75274 13.9204
11.88351 21.42151 12.57307 14.47892
11.89132 21.62821 10.82303 14.30191
11.90255 21.39702 10.33562 13.91801
11.91279 21.44113 9.802188 13.78957
11.92393 21.41887 8.802811 13.82707
11.93542 20.90811 7.433083 13.62849
11.94621 20.09586 5.971397 13.27945
11.9569 19.35246 4.796432 12.74722
11.97 18.66972 4.682728 12.26495
11.97973 18.28691 4.348487 11.76169
11.99094 17.95754 4.325042 11.53119
12.00311 17.62849 3.668057 11.21515
12.0362 17.15619 2.886638 10.87418
12.04411 16.83432 2.546189 10.84124
12.05299 16.18107 2.0737 10.32276
12.06197 15.81523 1.950023 10.0026
12.07076 15.77234 2.054524 9.922819
12.07945 15.75634 2.072587 9.826081
12.09051 15.90184 2.246477 9.933647
12.10183 16.18032 2.365371 9.974128
12.11269 16.31462 2.425106 9.848517
12.12429 16.57235 2.603857 9.802808
12.13581 16.90261 2.833845 9.743256
12.14678 17.22461 3.193507 9.823323
12.15785 17.49614 3.62898 9.865452
12.18553 16.83546 4.251151 9.234396
12.1934 17.13093 4.714923 9.374828
12.20286 17.37757 5.771241 9.779452
12.21317 17.32436 5.972689 10.19452
12.22434 17.20441 6.244728 10.37351
12.23611 16.94545 6.585757 10.35067
12.24667 16.76327 6.686311 10.3774
12.25685 16.21841 6.7757 10.11278
12.26821 16.42223 6.716698 9.987036
12.2808 18.59605 6.458488 10.77764
12.29168 21.14035 6.998222 11.91923
12.30238 22.89526 8.029044 12.81898
12.31423 23.56704 8.657441 13.22756
12.34334 24.1937 8.896069 13.63849
12.35177 25.02475 8.985315 14.16164
12.36022 26.44881 8.052119 12.843
12.36869 26.83614 7.037884 11.79237
12.38009 26.80292 6.468709 11.76398
12.39049 27.04019 5.921045 11.50681
12.40219 27.65487 5.882251 11.52685
12.41311 28.93687 6.234517 11.9314
12.42517 29.70066 6.269077 12.19622
12.43571 30.1569 6.301506 12.31357
12.44751 30.38437 6.144887 12.48183
12.45782 29.87991 5.991976 12.16213
12.46935 29.08683 5.66637 11.92435
12.50164 27.71629 5.063132 11.72701
12.50944 26.36238 4.514018 11.71887
12.51861 23.44556 1.728606 10.26801
12.52676 21.89043 1.876234 11.50272
12.53561 20.3527 0.3834926 11.00043
12.54652 17.9924 0.6234936 12.50847
12.55726 17.38 0.9653798 12.31875
12.56897 16.36605 2.058967 13.82434
12.57951 15.42808 1.418159 12.76799
12.59083 15.32722 0.8850349 12.79067
12.60423 14.31889 359.6433 11.78828
12.61618 12.54984 358.492 10.81905
12.62805 11.83286 357.5459 9.896167
12.65744 10.6101 356.6926 8.791149
12.66596 8.847213 356.7026 7.790145
12.67542 4.392921 357.594 5.509917
12.68731 1.862801 357.8796 4.229741
12.69978 0.1013758 358.8416 2.921834
12.71128 358.3086 359.0578 2.614101
12.72296 358.6367 359.5907 2.424158
12.73408 359.7497 0.5362144 2.601302
12.74516 2.037951 0.9960609 3.016766
12.75497 4.90137 1.822139 3.521647
12.76625 7.4648 2.029289 3.923767
12.7775 10.26099 2.043528 4.24285
12.78999 11.39115 1.603784 4.565681
12.8155 11.84118 1.726482 4.541729
12.82364 12.03375 1.878845 4.281742
12.83394 13.40897 2.784542 3.906364
12.84511 14.03879 3.82392 3.836939
12.85491 14.73474 5.228494 3.784811
12.86692 15.43211 5.958338 3.37146
12.8772 15.73521 6.256277 2.751836
12.8881 15.93608 6.237232 1.963857
12.90139 15.84825 6.35557 1.51765
12.91101 15.79786 6.166205 1.070219
12.92231 16.6648 5.862725 0.4921645
12.93468 17.57757 6.270522 0.5903401
12.94546 18.64533 6.85751 0.9829831
12.97642 20.05807 7.226843 1.230195
12.9848 21.48197 6.965521 1.353545
12.99268 22.31481 5.709258 0.9506901
13.00113 22.64016 4.798267 0.5889086
13.01028 23.36413 4.265301 0.3189085
13.02287 24.81443 4.113936 0.3844778
13.03432 26.20054 5.098912 0.7402743
13.04486 27.3034 5.601204 1.063798
13.05551 28.36166 5.613512 0.7819728
13.0671 29.00744 4.953707 0.4177554
13.07734 29.72124 4.597392 0.3022585
13.08794 30.37635 4.024066 0.0155922
13.10103 31.27726 3.275038 359.7312
13.12811 31.86275 2.787335 359.734
13.13661 32.53911 3.05195 359.8491
13.14468 33.58567 3.01279 0.02144395
13.15546 33.757 2.63367 359.8687
13.16677 33.72007 2.239563 359.8554
13.17805 33.95616 1.566994 359.8614
13.18891 34.4549 0.6923075 0.6122144
13.19991 34.25418 0.6595753 1.221834
13.21073 32.43703 1.187029 1.319195
13.22224 30.84266 1.750644 1.158633
13.23416 30.35794 1.594458 0.7580984
13.24501 30.49065 1.266726 0.744448
13.25572 29.80358 1.684194 0.9655539
13.28335 28.89452 1.890414 0.7108364
13.29083 28.33605 1.703501 0.3333253
13.30021 28.21047 359.8236 359.8462
13.31157 28.19297 0.2133908 359.829
13.32146 27.72997 0.6513211 0.05862321
13.33399 27.21113 1.983621 359.9429
13.34444 26.99176 2.470103 359.6304
13.35597 26.56363 2.813333 359.4711
13.36707 25.93257 2.967004 359.2466
13.37748 25.72894 3.411236 359.3759
13.38835 25.48545 3.331342 359.3473
13.40045 25.49058 3.257197 359.2001
13.41044 25.26229 3.149079 359.0624
13.44067 24.90289 3.17613 358.9278
13.44991 24.73298 3.140082 358.8036
13.45736 24.75472 2.895006 358.5786
13.46692 24.48644 2.926386 358.5608
13.48286 24.30011 3.010895 358.6418
13.49133 24.05759 3.05653 358.635
13.5005 23.7953 3.235329 358.6868
13.51131 23.50889 3.293056 358.6631
13.52217 23.18212 3.377144 358.6063
13.53315 22.965 3.427834 358.4432
13.54425 22.73608 3.402537 358.2775
13.55556 22.51703 3.269182 358.134
13.5665 22.18272 3.023821 358.0017
13.59764 21.89047 2.635314 358.1026
13.60506 21.42467 2.224603 358.2666
13.61362 19.52135 1.124588 358.6729
13.62412 18.5298 0.6671717 358.8887
13.63754 17.53811 0.4453042 359.2664
13.64833 16.79426 0.4069841 359.5103
13.65852 16.13941 0.4275037 359.6729
13.66931 15.47395 0.3720955 359.6761
13.68148 14.83808 0.2869087 359.5659
13.69192 14.1835 0.2815021 359.513
13.70259 13.5256 0.223509 359.5249
13.71522 12.83118 0.01338733 359.4277
13.72664 12.22396 359.7773 359.349
13.7531 11.70841 359.5453 359.2832
13.76114 11.23855 359.2233 359.2323
13.77065 10.38834 358.3825 359.0952
13.78065 9.909258 357.9267 359.0846
13.79092 9.29848 357.4647 359.0955
13.80315 8.626209 357.0176 359.1585
13.81526 7.973189 356.4785 359.1425
13.82563 7.442707 356.0081 359.0338
13.83696 6.769119 355.4509 359.0073
13.84802 6.287623 354.9992 359.0157
13.85771 5.920786 354.4541 358.9952
13.87097 5.455395 353.9386 358.9142
13.88183 4.844958 353.4597 358.7957
13.90956 4.429244 353.0118 358.7066
13.91837 4.008804 352.5692 358.6572
13.92666 3.236963 351.7564 358.454
13.93567 2.792516 351.3615 358.2438
13.94715 2.421878 351.0341 357.9387
13.95985 1.913711 350.5409 357.6166
13.97011 1.352117 350.052 357.2916
13.98047 0.6281782 349.4276 357.0566
13.99112 0.2000784 348.9571 356.7852
14.008 359.6248 347.8282 356.8467
14.01663 359.0151 346.8278 357.1888
14.02481 358.1469 345.7953 357.5912
14.03682 356.8107 344.3419 358.1997
14.0648 355.9072 342.9882 358.5357
14.0723 355.0572 341.8421 358.6948
14.08153 352.7856 339.8842 359.0645
14.09172 351.5574 339.0197 359.3187
14.10334 350.2191 338.2987 359.7524
14.11487 348.8077 337.6074 0.2758675
14.12583 347.7008 337.1271 0.7819124
14.13652 346.6686 336.5875 1.213284
14.14782 345.8076 335.9913 1.521137
14.15841 344.992 335.3705 1.654509
14.16925 344.3448 334.7911 1.711189
14.17979 343.8938 334.1939 1.808853
14.19336 343.3198 333.6057 2.014739
14.21973 342.663 333.0854 2.275157
14.22774 342.0599 332.6161 2.457917
14.23852 340.7504 331.7661 2.561266
14.24814 340.158 331.3128 2.582076
14.25873 339.552 330.8516 2.664014
14.27025 338.9345 330.3771 2.816125
14.2814 338.3351 329.872 3.010049
14.29193 337.8239 329.2968 3.22629
14.30234 337.2725 328.736 3.37401
14.31509 336.7162 328.1513 3.566235
14.32613 336.1883 327.6264 3.755607
14.33606 335.6781 327.1191 3.889878
14.34836 335.1041 326.7037 4.055198
14.37621 334.4777 326.3181 4.20398
14.38432 334.0121 325.954 4.300426
14.39185 332.9964 325.1644 4.502398
14.40264 332.5132 324.815 4.607367
14.41539 332.0599 324.4035 4.73484
14.42504 331.5616 324.0457 4.890386
14.43655 330.9791 323.6668 5.087022
14.4474 330.4239 323.2474 5.529615
14.45802 329.8187 322.8509 6.009621
14.47062 329.155 322.2483 6.493406
14.48125 328.6671 321.9065 6.720441
14.49208 328.2388 321.6494 6.912678
14.50293 327.6791 321.4595 7.08403
14.53627 327.1772 321.3739 7.098536
14.54478 326.7508 321.3352 7.119972
14.55307 325.5862 321.3672 7.250033
14.56111 325.0536 321.4691 7.41512
14.56906 324.761 321.4918 7.684952
14.57837 324.4636 321.5434 7.906107
14.59102 324.2308 321.6012 8.16593
14.6018 324.0579 321.7808 8.367958
14.61343 323.9662 322.1011 8.40889
14.62374 323.958 322.3705 8.328142
14.63555 324.0504 322.782 8.148212
14.64619 324.3199 323.272 7.869893
14.65755 324.6515 323.7886 7.687557
14.68464 325.3013 324.4982 7.382573
14.69238 325.9772 325.2976 7.022573
14.70153 327.7762 327.2596 5.536827
14.71243 328.8084 328.3456 4.550526
14.72461 330.1678 329.6711 3.300075
14.73602 331.674 330.9728 2.045116
14.74684 333.1102 332.0585 0.9438682
14.75705 334.2942 333.1041 359.8737
14.76861 335.4673 334.1769 358.8802
14.77981 336.6518 335.2661 358.1031
14.79051 337.9031 336.3594 357.5146
14.80225 339.1093 337.1521 356.9419
14.81376 340.3506 337.9233 356.2772
14.84255 341.5578 338.6207 355.6592
14.85076 343.018 339.2562 355.0486
14.85879 345.0174 340.3277 354.2133
14.86943 345.8098 340.7624 353.9753
14.88024 346.6452 341.1683 353.9014
14.89018 347.6223 341.377 353.9413
14.90203 348.8535 341.573 353.9877
14.91237 350.1971 341.9577 353.9876
14.92313 351.6397 342.504 353.8045
14.93557 353.1291 343.3245 353.4935
14.94606 354.2922 344.1711 353.0737
14.95702 355.2948 344.9564 352.5503
14.96816 356.3254 345.6095 352.1517
15.00121 357.2686 346.0737 351.9803
15.0089 358.3767 346.3989 351.9341
15.01787 0.1774119 347.336 352.3787
15.02569 1.129438 347.9155 352.5799
15.03474 1.911055 348.5381 352.5782
15.04578 2.657722 349.1552 352.4155
15.05612 3.268609 349.8575 352.1401
15.06936 4.016468 350.498 351.8528
15.08033 4.674576 351.1135 351.6974
15.09094 5.295185 351.7359 351.6866
15.10212 5.924301 352.3979 351.7852
15.11316 6.636536 353.0302 351.9506
15.12322 7.351028 353.5223 352.0728
15.15326 8.125216 354.0281 352.0582
15.16146 8.876036 354.4728 351.9213
15.16986 10.42624 355.4357 351.567
15.18022 11.09835 355.9695 351.5044
15.19016 11.73347 356.5247 351.4853
15.20138 12.40112 357.0444 351.5148
15.21213 12.97802 357.5131 351.5038
15.22406 13.63321 357.9926 351.4712
15.23477 14.12815 358.4169 351.398
15.24683 14.45431 358.8101 351.3263
15.25716 14.70982 359.1336 351.2226
15.26799 14.96393 359.4039 351.1542
15.27874 15.30242 359.6427 351.1875
15.30687 15.63873 359.7372 351.1133
15.31478 15.90227 359.8666 351.0785
15.324 16.37025 0.08790652 350.8867
15.33601 16.62072 0.216453 350.7611
15.34591 16.81534 0.3662627 350.5947
15.35719 16.88697 0.4480962 350.4249
15.36787 16.80298 0.5283498 350.246
15.37883 16.76281 0.614807 350.13
15.3907 16.72716 0.6735119 350.0604
15.40176 16.70495 0.7527682 350.0613
15.41369 16.68613 0.8136072 350.0917
15.42323 16.72782 0.7937298 350.0042
15.43502 16.81169 0.7389202 349.8589
15.46835 16.93872 0.6764629 349.6483
15.47623 17.01834 0.6817784 349.4896
15.48457 17.24479 0.8604861 349.1566
15.49277 17.24854 0.9446452 349.0649
15.50167 17.17232 0.8904631 348.9941
15.51185 17.08731 0.7884125 348.9202
15.52404 16.94546 0.6097575 348.8485
15.53451 16.85551 0.4347402 348.8768
15.54618 16.84217 0.3130159 348.8909
15.55669 16.94641 0.1814295 348.8265
15.56796 17.04476 0.09916934 348.6793
15.57941 17.07364 0.07245911 348.4935
15.59042 16.89043 0.0668723 348.3913
15.61979 16.65244 0.04603135 348.3731
15.62726 16.58248 0.01476918 348.3567
15.63565 16.23331 0.2719304 348.4396
15.64482 16.03995 359.7395 348.3424
15.65656 16.00401 359.2333 348.0878
15.66722 16.42439 358.7757 347.9495
15.67763 16.51299 358.3059 347.9582
15.68848 16.44999 357.717 347.8944
15.69991 16.31274 357.1308 347.854
15.71223 16.08859 356.3406 347.8377
15.72343 15.80297 355.4326 347.7006
15.73407 15.61613 354.678 347.5111
15.74488 15.23038 354.0322 347.4999
15.77205 14.9431 353.4688 347.4389
15.78071 14.60266 352.8044 347.2831
15.78983 14.16971 352.3272 347.79
15.80135 14.32366 351.9296 347.9363
15.81206 14.45871 351.3895 347.6607
15.82255 14.18729 351.1951 347.3767
15.83429 13.80506 351.1302 347.4348
15.84441 13.2719 351.5221 347.7997
15.85561 12.54569 352.0282 348.3352
15.86664 11.65011 352.2075 348.6323
15.8778 10.70632 352.2525 348.6042
15.8906 10.35605 352.5397 348.4496
15.9009 10.09716 353.3044 348.4359
15.93213 10.09841 354.3969 348.5656
15.93977 10.211 355.2124 348.6048
15.94862 10.15227 355.4455 348.367
15.95583 9.843329 354.6727 348.1687
15.96812 9.700649 353.8754 347.7201
15.97822 9.172394 353.5999 347.4509
15.9885 8.615299 353.8992 347.5539
16.00071 8.17606 354.3747 347.7645
16.01141 8.091492 354.8754 348.0945
16.02212 8.338614 355.4262 347.6505
16.03391 8.609225 355.728 347.1434
16.04484 8.706638 355.5437 346.5543
16.05509 9.065513 355.4087 345.932
16.08545 9.453292 355.3386 345.6909
16.09334 9.672048 355.6041 345.4297
16.1018 9.072407 355.9402 345.4252
16.11117 8.851971 356.0818 345.5361
16.12228 8.694508 356.3433 345.7458
16.13396 8.728875 356.5463 345.9929
16.14415 8.910617 356.7187 346.1667
16.15593 9.082389 356.7907 346.3132
16.16787 9.336267 356.8774 346.4484
16.17883 9.525348 356.9545 346.5474
16.18915 9.746217 357.0336 346.6521
16.19993 10.10408 357.0287 346.6296
16.21131 10.84267 356.9531 346.5222
16.2394 11.50277 356.7949 346.5365
16.24749 11.87826 356.6154 346.7473
16.25667 10.85339 356.112 347.539
16.26733 10.40843 355.5935 347.7342
16.27778 10.79511 355.0648 347.7975
16.2891 11.6194 354.7755 348.029
16.30127 12.18105 354.4649 348.2564
16.31103 11.97181 354.2191 348.4855
16.323 11.07651 354.2238 348.7142
16.33429 10.09879 354.3532 348.8444
16.34545 9.388995 354.6334 349.032
16.35676 8.880325 354.8687 349.2149
16.36756 8.194798 355.066 349.3795
16.39891 7.420804 355.1475 349.5004
16.40747 7.055853 355.3148 349.6625
16.41628 7.983121 355.6214 349.891
16.42441 8.612992 355.6788 349.8037
16.43436 9.009225 355.7545 349.6719
16.44534 8.944804 355.9834 349.6901
16.45633 8.582815 356.4141 349.846
16.46791 8.200602 356.6423 349.8887
16.47783 8.524624 356.7448 349.8105
16.48905 9.21398 356.8546 349.7799
16.5009 10.10681 356.8567 349.7355
16.5109 10.50445 356.8611 349.7531
16.52195 10.38303 356.9308 349.8264
16.55374 9.917542 357.0207 349.9247
16.56154 9.497332 357.1349 349.9709
16.57071 9.653168 357.7082 349.8667
16.57868 9.962935 358.0593 349.5705
16.59036 10.24905 358.5466 349.424
16.60221 10.34785 358.8578 349.4211
16.61275 10.25542 358.9931 349.524
16.62478 10.06445 359.0586 349.6765
16.63558 10.19448 358.9192 349.6953
16.64713 10.46012 358.8033 349.6163
16.65756 10.66882 358.8493 349.4713
16.66927 10.78226 359.1063 349.3755
16.6807 10.93937 359.5104 349.3188
16.70683 11.18224 359.8996 349.2025
16.71539 11.50143 0.3118142 349.131
16.7246 11.90134 0.5374524 349.168
16.73593 11.44419 0.4652069 349.2715
16.74721 10.99911 0.4334727 349.3846
16.75789 10.6795 0.5627531 349.4974
16.7689 10.66328 0.7884151 349.5298
16.77986 11.10295 0.8888276 349.2726
16.79111 11.83878 1.061815 349.0042
16.80285 12.69836 1.50784 349.0478
16.81476 13.32571 1.576213 349.2396
16.82439 14.01905 1.497913 349.5546
16.83662 14.79503 1.485232 349.9073
16.86373 15.53109 1.290978 350.0482
16.87127 16.38818 1.126505 350.1467
16.88453 17.45704 1.158281 349.9756
16.89255 17.47016 1.306591 349.6475
16.90245 17.53913 1.565174 349.5055
16.91377 17.84048 1.566154 349.6091
16.92371 17.98145 1.475455 349.7949
16.93526 17.93785 1.36896 349.9782
16.94704 17.57565 1.225941 350.0772
16.95764 17.03891 1.031128 350.1083
16.96877 16.49388 0.8849754 350.1081
16.98072 16.41545 0.8744332 350.087
16.99196 16.93644 0.8498689 350.0386
17.01961 18.04363 0.8015209 349.9698
17.02761 19.366 0.6980291 349.9215
17.03664 22.47552 0.6817953 349.7843
17.04831 24.10081 0.6206647 349.8157
17.05766 25.65425 0.5281561 349.9981
17.06984 26.80053 0.3981034 350.2171
17.08058 28.20274 0.2946734 350.6384
17.0912 29.45943 0.3032043 351.0153
17.1017 30.73745 0.3342357 351.2708
17.11295 31.85873 359.8728 351.4278
17.12561 32.36947 359.9121 351.6297
17.13773 32.38067 359.739 351.728
17.1487 31.50851 359.4859 351.4674
17.18027 30.80112 359.4648 351.3837
17.18823 30.185 359.2992 351.3291
17.19775 29.62766 358.9685 351.4035
17.20584 29.32189 358.9928 351.584
17.21407 28.50492 359.0108 351.7972
17.22419 27.71452 358.9174 352.0108
17.23633 26.67153 358.8825 352.1874
17.24658 26.07929 358.677 352.4049
17.25756 25.8246 358.217 352.5254
17.26921 25.57806 358.1734 352.6789
17.27997 25.34221 357.9364 352.5753
17.29171 24.97478 357.5838 352.4353
17.30316 24.63316 357.2452 352.3976
17.33055 24.27786 356.7844 352.2456
17.34083 24.0438 356.3806 352.2367
17.34962 22.95386 355.5851 352.4606
17.3576 22.21694 355.0933 352.6611
17.3697 21.4924 354.6151 352.8601
17.38092 20.90569 354.2419 353.1091
17.39152 20.38882 353.8469 353.4147
17.40683 19.93333 353.4433 353.6805
17.41511 19.27124 353.0374 353.8865
17.424 18.55486 352.6 354.0088
17.43666 17.81332 352.1008 354.2183
17.44768 17.20469 351.6661 354.3976
17.45882 16.57043 351.2792 354.5364
17.48547 15.90047 350.8207 354.718
17.49284 15.23009 350.2586 354.9931
17.50315 13.87968 349.2513 355.8531
17.51445 13.27884 348.9815 356.4485
17.52478 12.62581 348.855 357.0977
17.53564 12.10895 348.8089 357.5525
17.54808 11.75546 348.8496 357.7953
17.55843 11.44563 348.8498 357.9407
17.56923 11.12959 348.7894 357.9675
17.58014 10.90424 348.6974 357.8952
17.59167 10.65413 348.4753 357.786
17.60226 10.37841 348.3728 357.34
17.61379 10.02143 348.132 357.0713
17.64078 10.03697 347.9008 357.0515
17.64956 10.22115 347.6502 357.2211
17.65776 9.838689 347.5513 357.3354
17.6695 9.941342 347.5232 357.2392
17.67937 10.16644 347.3827 357.0849
17.69184 10.31173 347.1841 356.7394
17.70196 10.36522 346.898 356.4476
17.71408 10.46393 346.521 356.0459
17.72513 10.46434 345.9185 355.6072
17.73581 10.68352 345.7518 355.3422
17.74791 10.97774 345.7867 355.2018
17.75824 11.09241 345.6802 355.0213
17.76914 11.33953 345.5169 354.9005
17.79766 11.39957 345.2811 354.709
17.80632 11.20669 344.9138 354.4595
17.81508 10.70636 343.9945 353.9836
17.8257 10.2852 343.6325 353.8227
17.83636 10.24498 343.3129 353.7593
17.84813 9.898216 343.1316 353.783
17.85698 9.689491 342.9675 353.8877
17.86967 9.408865 342.7241 353.9753
17.88042 9.168758 342.4833 354.076
17.89144 8.906524 342.214 354.1222
17.90262 8.800489 341.9232 354.0786
17.91278 8.75982 341.7394 353.9994
17.92599 8.586395 341.6823 353.845
17.95292 8.456822 341.727 353.6998
17.96114 8.402774 341.8376 353.5332
17.96998 8.294725 341.8989 353.476
17.97967 8.094543 341.9438 353.4985
17.99021 8.099479 341.8508 353.5049
18.00303 8.267297 341.7265 353.3935
18.0146 8.354952 341.5905 353.2208
18.02459 8.296105 341.5168 353.0399
18.03559 8.061047 341.485 352.7624
18.04657 7.861421 341.4874 352.513
18.05815 7.644113 341.4772 352.2844
18.06983 7.477613 341.5051 352.1353
18.08122 7.47026 341.5367 352.1111
18.10769 7.433897 341.3433 352.073
18.11563 7.350353 341.1601 352.0462
18.12475 7.439289 340.9762 351.8167
18.13547 7.276871 341.145 351.5887
18.14669 7.147145 341.1998 351.3401
18.15912 7.002631 341.1865 351.1344
18.16965 6.829707 341.2294 351.1175
18.18018 6.705616 341.2574 351.0796
18.19128 6.745926 341.1559 351.0519
18.20246 6.940835 340.8696 351.0388
18.21309 6.76851 340.6949 350.9532
18.22406 6.406885 340.5981 350.8361
18.23684 6.103303 340.5806 350.789
18.26594 5.986967 340.5776 350.8343
18.27394 5.903861 340.5717 350.9306
18.28289 5.718036 340.5681 351.148
18.29102 5.643693 340.5232 351.2745
18.30343 5.525281 340.3569 351.3091
18.31437 5.300132 340.1888 351.3106
18.32498 4.989453 339.9797 351.2693
18.33696 5.816098 339.9871 351.0973
18.3478 5.585182 339.9352 350.9888
18.35759 6.152574 340.0305 350.6086
18.36903 6.040839 340.0815 350.5834
18.38034 5.341466 340.1342 350.5128
18.39284 5.249951 340.0215 350.5014
18.42453 5.089229 339.8702 350.4052
18.43311 4.783352 339.7919 350.3252
18.44167 4.655475 339.6441 350.1395
18.45145 4.900608 339.6638 350.0632
18.45981 5.031926 339.7002 349.9814
18.46906 5.005404 339.6201 349.8897
18.48082 3.27053 339.5745 350.4655
18.49137 3.975913 339.1408 350.7766
18.50266 4.593652 339.2018 350.9954
18.51283 4.209521 339.0981 350.5434
18.52459 4.765636 338.9431 351.1025
18.53605 5.011968 339.3212 350.8304
18.54781 6.128968 339.4489 351.365
18.57534 5.984236 340.0634 351.4503
18.58411 5.908043 339.7993 351.5876
18.59175 3.392581 339.6872 351.7924
18.60286 3.832213 339.569 352.0051
18.61378 2.544462 339.9275 351.8995
18.62453 2.110311 339.9308 351.8533
18.63519 0.9562841 340.2982 352.014
18.64637 0.9857256 340.3257 351.8968
18.65672 0.2934949 340.2073 351.9823
18.67005 0.3756851 340.2187 351.9379
18.67981 0.3619134 340.0573 351.8318
18.69101 0.2379882 339.869 351.7788
18.70174 359.9373 339.7994 351.6591
18.73112 359.419 339.7341 351.4409
18.73924 359.0664 339.9044 351.3521
18.7485 358.7176 339.851 351.1721
18.75788 357.0957 340.1425 351.3711
18.76898 356.9111 339.9311 351.3693
18.77928 356.2623 339.7108 351.7248
18.79038 356.295 339.274 352.2255
18.80217 356.0481 339.1896 352.5262
18.81244 357.5401 339.6861 352.8719
18.82446 357.2541 339.8362 353.0352
18.83537 357.6912 339.8574 353.1333
18.84767 357.87 339.7963 353.5071
18.85741 358.0229 339.7477 353.7826
18.89041 358.0679 339.8541 353.9945
18.89985 358.0441 339.9523 353.8809
18.90748 357.7449 339.9776 353.8709
18.91599 356.9537 339.8178 353.7578
18.92474 356.6345 339.7611 353.5656
18.93583 356.0536 340.1396 353.4901
18.94742 355.9215 340.2464 353.3034
18.95704 355.984 340.391 353.1331
18.96854 356.0468 340.4801 352.9255
18.97926 356.4638 340.5901 352.8218
18.99131 356.6404 340.536 352.4057
19.0027 356.9273 340.1855 352.0031
19.01378 358.1347 339.0144 352.9231
19.04171 357.869 338.9639 352.4662
19.05055 357.4305 339.1156 352.0839
19.0589 357.3151 339.9399 351.6729
19.06947 357.4956 340.4732 352.0815
19.08008 358.2501 340.6216 352.4903
19.09111 358.7021 340.7887 352.7786
19.10233 358.9235 341.0631 352.815
19.11337 358.9944 341.1447 352.6578
19.12399 358.1251 340.5816 350.64
19.13656 357.9504 340.3637 350.3965
19.14738 357.312 340.3022 349.9517
19.15756 356.8494 340.2764 349.7143
19.16891 356.4428 340.3064 349.6621
19.20057 356.1222 340.3348 349.52
19.20778 355.6838 340.5697 349.7329
19.21705 356.744 340.7373 350.8281
19.22545 356.5939 340.8147 350.7057
19.23562 356.4386 340.6486 350.6359
19.24622 356.375 340.5169 350.5001
19.2569 356.5871 340.3585 350.1991
19.27007 356.8249 340.3144 350.1354
19.28147 357.0472 340.1837 350.0495
19.29248 357.1488 340.0552 349.9958
19.30366 357.2511 339.8491 349.9394
19.31371 357.1371 339.6459 349.9896
19.3245 356.9199 339.5872 350.0746
19.35784 356.6962 339.5672 350.2486
19.36603 356.5607 339.5737 350.3198
19.37392 356.234 339.4005 350.5642
19.38224 356.0653 339.1772 350.5078
19.39057 356.0094 339.0913 350.4833
19.40134 356.0288 339.0991 350.6024
19.41133 356.1221 339.05 350.7633
19.42331 356.1228 338.9528 350.8436
19.43422 358.1841 336.9084 352.1727
19.44588 358.1434 336.8778 352.2082
19.45508 358.0723 336.9191 352.3311
19.46804 357.9372 337.0276 352.5222
19.47983 358.4051 336.7482 352.2672
19.50839 358.2545 336.7963 352.4133
19.51645 358.2647 336.9563 352.5406
19.52464 358.2615 336.9188 352.8063
19.53516 358.2908 337.0673 352.9109
19.54509 358.347 337.1188 352.8084
19.55524 358.2368 337.3854 352.9423
19.56723 358.2079 337.7392 353.0944
19.5774 358.0797 338.208 353.2936
19.5902 358.003 338.6614 353.5404
19.60197 357.8199 339.3005 353.6664
19.6136 357.6136 339.6277 353.8163
19.62518 357.4949 339.9983 354.0976
19.63826 357.3795 340.4097 354.5356
19.66734 357.3359 340.7505 354.8991
19.67537 357.1146 341.0975 355.3397
19.68627 357.2307 341.5244 355.3574
19.69747 357.1016 341.1912 354.9155
19.70759 357.2554 341.7459 355.2315
19.7199 357.2075 341.6543 355.2837
19.73107 357.2045 341.5645 354.7515
19.74173 355.938 341.1015 353.5592
19.75238 356.0063 340.9676 353.6992
19.76398 355.8453 340.8582 353.8127
19.77494 355.5638 340.6294 353.9385
19.78529 355.4849 340.6748 353.9482
19.7972 355.3009 340.8725 354.0186
19.82946 355.2732 341.1145 354.0654
19.83683 355.2225 341.5858 354.0345
19.84493 355.086 342.4983 354.1602
19.85327 355.1176 342.9771 354.2039
19.86382 355.1346 343.2917 354.1891
19.8743 355.1168 343.7423 354.2818
19.88521 355.0088 344.1914 354.4818
19.89887 354.8804 344.5221 354.6615
19.90915 354.4605 344.8841 355.1056
19.92039 354.1104 345.3047 355.8979
19.93206 353.9088 345.709 356.2079
19.9426 353.7338 345.8964 356.2189
19.95366 353.9821 345.9192 355.6649
19.9807 353.9416 345.9611 355.2768
19.98769 354.2556 345.8126 355.4239
19.99726 354.3448 346.0349 355.2807
20.00841 354.2387 345.8122 355.4295
20.01872 354.28 345.8597 355.4021
20.03033 354.3939 345.6947 355.1375
20.04116 354.4585 345.5273 354.9767
20.05365 354.474 345.4274 354.9697
20.06417 354.4948 345.4193 355.0269
20.07441 354.4844 345.4819 355.0287
20.08569 354.4003 345.4056 355.0804
20.09757 354.4258 345.4689 355.0867
20.10792 354.4124 345.4453 355.1252
20.13662 354.4018 345.4206 355.142
20.14572 354.3788 345.4638 355.071
20.15349 354.3504 345.5239 355.2087
20.16421 354.3346 345.5355 355.2241
20.17465 354.326 345.5255 355.2216
20.18573 354.3319 345.4869 355.2192
20.19751 354.3015 345.4599 355.2206
20.20703 354.3034 345.5007 355.2262
20.21962 354.3078 345.5347 355.2281
20.23059 354.2964 345.5703 355.2198
20.24117 354.2955 345.5644 355.223
20.25227 354.2681 345.7166 355.3921
20.2637 354.258 345.7105 355.4191
20.29703 354.1944 345.7792 355.5505
20.30472 354.2008 345.8288 355.5369
20.31306 354.1991 345.9459 355.6013
20.32247 354.1895 346.0038 355.6359
20.33092 354.1361 345.9698 355.7303
20.34014 354.1159 345.9506 355.7416
20.35126 354.0878 346.063 355.8207
20.36356 354.0899 346.0942 355.8159
20.37469 354.0827 346.0958 355.8669
20.38524 354.0851 346.0854 355.8826
20.39655 354.0341 346.1304 355.977
20.40778 354.0136 346.137 355.9828
20.41856 354.003 346.1906 356.0458
20.44843 353.9827 346.2 356.0828
20.45593 353.9727 346.1742 356.0688
20.46515 353.9889 346.2787 356.1241
20.47441 353.9688 346.296 356.1465
20.4846 353.9543 346.3193 356.1528
20.49637 354.3127 346.8788 356.4607
20.50732 354.3063 346.873 356.4616
20.51811 354.2827 347.0029 356.4643
20.53052 354.2845 347.0033 356.4704
20.54033 354.2962 347.0984 356.4674
20.55201 354.2666 347.1467 356.4344
20.56303 354.283 347.1454 356.4339
20.57352 354.2333 347.1516 356.4512
20.60466 354.2337 347.1577 356.4507
20.6132 354.2606 347.2156 356.4889
20.62149 354.3093 347.376 356.598
20.63116 354.313 347.3981 356.5762
20.64228 354.325 347.4826 356.625
20.65261 354.3345 347.4957 356.6246
20.66398 354.3172 347.5412 356.6097
20.67401 354.3143 347.6077 356.6592
20.68645 354.308 347.6236 356.6552
20.69754 354.3206 347.6307 356.6556
20.7077 354.3159 347.6459 356.6319
20.71925 354.3171 347.6465 356.6197
20.7303 354.3181 347.6326 356.6119
20.75857 354.4823 347.8113 356.5916
20.76675 354.4985 347.8355 356.6511
20.77467 354.4966 347.8355 356.6357
20.78612 354.5119 347.8442 356.6288
20.79773 354.5171 347.8602 356.6556
20.81355 354.5117 347.8526 356.6652
20.82173 356.2988 348.5822 356.0161
20.83135 356.331 348.6363 356.014
20.84216 356.597 348.6837 355.892
20.85356 356.7607 348.9934 355.6578
20.86476 356.762 348.9786 355.6474
20.87471 356.8598 349.1136 355.5656
20.88636 356.8706 349.1167 355.5559
20.91443 356.837 349.332 355.5151
20.92328 356.8089 349.2911 355.5035
20.93215 356.7353 349.4535 355.4153
20.94248 356.7357 349.4512 355.3978
20.9523 356.7208 349.5194 355.4081
20.96475 356.7354 349.528 355.4078
20.9743 356.6365 349.5812 355.3918
20.98546 356.6351 349.5869 355.3958
20.99877 356.3956 349.5219 355.499
21.00906 356.3484 349.5232 355.4672
21.02007 356.0824 349.4351 355.5559
21.03116 356.0242 349.3954 355.5474
21.04176 356.0259 349.3994 355.546
21.07084 355.7162 349.4387 355.5522
21.0781 355.7012 349.4421 355.5485
21.08686 355.6295 349.4063 355.5357
21.09842 355.1267 349.2976 355.6202
21.10905 354.8116 349.1346 355.7194
21.11884 354.8149 349.1308 355.7158
21.13126 354.7358 349.0632 355.7316
21.14077 354.5241 348.9565 355.8159
21.15463 354.4893 348.9513 355.7888
21.16865 354.4861 348.9672 355.7953
21.1777 354.3059 348.9079 355.9892
21.18648 354.2953 348.9069 355.9906
21.19794 354.1048 348.7993 356.1043
21.22521 354.0676 348.7892 356.0872
21.23315 353.9518 348.7633 356.1874
21.24215 353.8622 348.7166 356.2244
21.25322 353.8153 348.6945 356.2301
21.26416 353.7905 348.7092 356.2328
21.27497 353.7422 348.7162 356.238
21.28611 353.7356 348.7165 356.2271
21.29744 353.6696 348.644 356.2969
21.30902 353.6476 348.6471 356.2889
21.32546 353.6577 348.6559 356.2928
21.33423 353.4828 348.5956 356.3395
21.3432 353.4964 348.5962 356.3332
21.35312 353.4308 348.5038 356.3582
21.38513 353.4221 348.5126 356.3607
21.3947 353.3656 348.4824 356.3842
21.40399 353.358 348.4486 356.4548
21.41382 353.3021 348.4024 356.4577
21.42303 353.3019 348.4005 356.4481
21.43206 353.2705 348.403 356.5263
21.44193 353.2736 348.4054 356.5034
21.45205 353.2794 348.3819 356.4993
21.46463 353.2758 348.3929 356.493
21.47552 353.1811 348.3369 356.5649
21.48622 353.1867 348.3095 356.5576
21.49759 353.1731 348.3094 356.549
21.50855 353.0844 348.2275 356.5796
21.53886 353.0829 348.2257 356.5683
21.54682 353.0473 348.2178 356.6279
21.5547 353.0386 348.2265 356.6194
21.56568 353.0541 348.2259 356.6403
21.57557 353.0089 348.1554 356.6679
21.58655 352.9667 348.1542 356.6843
21.59789 352.9666 348.1763 356.6826
21.60858 352.9603 348.1243 356.7285
21.61994 352.9754 348.132 356.7344
21.63209 352.9411 348.1079 356.7673
21.64207 352.9306 348.1133 356.7813
21.65278 352.8982 348.1117 356.8029
21.66478 352.896 348.0932 356.8015
21.69272 352.9049 348.0789 356.806
21.7011 352.8652 348.0576 356.8673
21.70952 352.813 348.0187 356.8643
21.72028 352.8139 348.0288 356.8707
21.73047 352.7932 348.0064 356.8739
21.74166 352.7762 348.0104 356.882
21.75914 352.7526 348.0199 356.9109
21.76899 352.7477 348.0222 356.9258
21.77762 352.7296 348.0039 356.9305
21.78667 352.7214 347.9939 356.9377
21.79823 352.7002 348.0067 356.9136
21.80811 352.708 347.9768 356.9306
21.82147 352.7036 347.9734 356.9334
21.8548 0 0 0
