時間[s] タイヤの舵角[deg]
0 0
0.02 0
0.05333333 0
0.06318243 0
0.06661923 0
0.07086673 0
0.07581513 0
0.07988753 0
0.08335933 0
0.08798203 0
0.09118383 0
0.09428623 0
0.09722273 0
0.09997093 0
0.1039235 0
0.1069345 0
0.1106004 0
0.1138393 0
0.1175283 0
0.1206615 0
0.1235706 0
0.1264464 0
0.129702 0
0.1328004 0
0.1366349 0
0.1396018 0
0.143027 0
0.1471521 0
0.1513132 0
0.1542275 0
0.1573006 0
0.160044 0
0.1627663 0
0.1664272 0
0.1694716 0
0.1723682 0
0.1754966 0
0.1782338 0
0.1817689 0
0.185459 0
0.1881912 0
0.1920182 0
0.1949673 0
0.198457 0
0.2015637 0
0.2053168 0
0.2081922 0
0.2109105 0
0.2143525 0
0.2176097 0
0.2212367 0
0.2241345 0
0.2276645 0
0.2309223 0
0.2338481 0
0.2373568 0
0.240093 0
0.2427474 0
0.2457767 0
0.2487051 0
0.2514333 0
0.2545521 0
0.2572167 0
0.2603703 0
0.2646034 0
0.2677736 0
0.2712176 0
0.2741076 0
0.2772404 0
0.2800645 0
0.2827758 0
0.28627 0
0.2892616 0
0.2922051 0
0.2954408 0
0.2981199 0
0.3011309 0
0.304109 0
0.3069995 0
0.3101688 0
0.3131695 0
0.3162878 0
0.319719 0
0.3225728 0
0.3261499 0
0.3289755 0
0.3320419 0
0.3352775 0
0.3384493 0
0.343527 0
0.3471069 0
0.3517866 0
0.3557631 0
0.360137 0
0.363165 0
0.3661307 0
0.3707271 0
0.3742877 0
0.3770205 0
0.3798264 0
0.3833797 0
0.3885281 0
0.3920355 0
0.3946872 0
0.3979492 0
0.4007648 0
0.4044082 0
0.4074036 0
0.4103102 0
0.4138025 0
0.4170797 0
0.4217796 0
0.4248606 0
0.428016 0
0.431505 0
0.4347336 0
0.4382714 0
0.4411415 0
0.4438192 0
0.4471836 0
0.4502988 0
0.4546024 0
0.4579222 0
0.4614494 0
0.4645988 0
0.4678878 0
0.4730346 0
0.4759657 0
0.4793903 0
0.4822305 0
0.4853311 0
0.4898789 0
0.493894 0
0.496889 0
0.4997945 0
0.5037053 0
0.5164996 0
0.5207108 0
0.5241233 0
0.5284056 0
0.5312095 0
0.5342247 0
0.5376123 0
0.5417674 0
0.5454226 0
0.5491402 0
0.5526185 0
0.5560524 0
0.5604819 0
0.5632445 0
0.5661261 0
0.5692387 0
0.576788 0
0.5795924 0
0.5832908 0
0.5865424 0
0.5901212 0
0.5932432 0
0.596367 0
0.5996726 0
0.6029401 0
0.6065027 0
0.6092986 0
0.6118715 0
0.614462 0
0.6170572 0
0.6202798 0
0.6237918 0
0.6267651 0
0.6302469 0
0.6328995 0
0.6362588 0
0.6395783 0
0.6423658 0
0.6456617 0
0.6483715 0
0.651389 0
0.6549698 0
0.6578037 0
0.6608112 0
0.6641232 0
0.66697 0
0.670138 0
0.6728879 0
0.6755134 0
0.6785144 0
0.6814033 0
0.684444 0
0.6883804 0
0.6913509 0
0.6944172 0
0.6971081 0
0.6998883 0
0.7029358 0
0.7059975 0
0.7093588 0
0.7122641 0
0.7151001 0
0.7182637 0
0.7216175 0
0.72452 0
0.7273249 0
0.7303332 0
0.7339366 0
0.7374952 0
0.7406275 0
0.7439805 0
0.7467998 0
0.7498279 0
0.7529252 0
0.7561622 0
0.7595263 0
0.7628495 0
0.765736 0
0.7686626 0
0.7718765 0
0.7762314 0
0.7790813 0
0.7823673 0
0.7854604 0
0.7894746 0
0.7922845 0
0.7951942 0
0.7985417 0
0.8013038 0
0.8043731 0
0.8076729 0
0.8103706 0
0.8131481 0
0.8160048 0
0.8188947 0
0.8223847 0
0.8251917 0
0.8279752 0
0.831122 0
0.8340555 0
0.8385437 0
0.8416415 0
0.844339 0
0.8476935 0
0.8506165 0
0.8547996 0
0.8575835 0
0.8605587 0
0.8636633 0
0.8667333 0
0.8710291 0
0.8739794 0
0.8770593 0
0.8797261 0
0.8822951 0
0.8861293 0
0.8890513 0
0.8918164 0
0.8953375 0
0.8980603 0
0.9008147 0
0.9040492 0
0.906785 0
0.9100648 0
0.9131475 0
0.9159253 0
0.9195027 0
0.9224702 0
0.92564 0
0.9291697 0
0.9320437 0
0.935671 0
0.938971 0
0.9418632 0
0.9446059 0
0.9475564 0
0.9513381 0
0.9547461 0
0.9579256 0
0.9608234 0
0.9638171 0
0.9665538 0
0.9698815 0
0.9736373 0
0.9768708 0
0.9803638 0
0.9841284 0
0.9878765 0
0.9910517 0
0.9938876 0
0.9975193 0
1.000453 0
1.003644 0
1.006452 0
1.009531 0
1.012383 0
1.015444 0
1.018265 0
1.021895 0
1.024752 0
1.027416 0
1.030064 0
1.032932 0
1.036018 0
1.039595 0
1.042541 0
1.045454 0
1.048269 0
1.051108 0
1.054659 0
1.057595 0
1.060967 0
1.064291 0
1.067139 0
1.070617 0
1.073488 0
1.076415 0
1.079724 0
1.08258 0
1.086134 0
1.089431 0
1.092395 0
1.095561 0
1.098881 0
1.102429 0
1.10708 0
1.110713 0
1.113622 0
1.116734 0
1.119817 0
1.122592 0
1.125332 0
1.128064 0
1.130719 0
1.133676 0
1.137482 0
1.140417 0
1.14358 0
1.146777 0
1.149578 0
1.152673 0
1.156187 0
1.158874 0
1.16216 0
1.165392 0
1.168225 0
1.171481 0
1.174473 0
1.177358 0
1.180629 0
1.183362 0
1.186439 0
1.189718 0
1.193362 0
1.196569 0
1.200011 0
1.203652 0
1.206687 0
1.209634 0
1.212759 0
1.21554 0
1.218479 0
1.221734 0
1.224626 0
1.227804 0
1.230553 0
1.233503 0
1.236705 0
1.239856 0
1.242941 0
1.245813 0
1.248764 0
1.251873 0
1.254992 0
1.258198 0
1.261435 0
1.26445 0
1.267248 0
1.270527 0
1.274119 0
1.277268 0
1.280413 0
1.283772 0
1.287235 0
1.290223 0
1.297181 0
1.299927 0
1.303412 0
1.306601 0
1.309236 0
1.311942 0
1.314603 0
1.317524 0
1.320988 0
1.323741 0
1.326493 0
1.329087 0
1.331827 0
1.335065 0
1.339261 0
1.342779 0
1.345603 0
1.348325 0
1.351116 0
1.354937 0
1.357648 0
1.360464 0
1.363378 0
1.366141 0
1.369245 0
1.37214 0
1.37487 0
1.377573 0
1.380371 0
1.383536 0
1.387518 0
1.390516 0
1.393392 0
1.39606 0
1.398817 0
1.40163 0
1.404674 0
1.407601 0
1.410413 0
1.413478 0
1.416467 0
1.419467 0
1.422713 0
1.425496 0
1.428542 0
1.432228 0
1.435671 0
1.43881 0
1.441936 0
1.445222 0
1.447954 0
1.450592 0
1.453687 0
1.456878 0
1.460308 0
1.463922 0
1.466908 0
1.470627 0
1.473584 0
1.476489 0
1.479754 0
1.482756 0
1.485675 0
1.488653 0
1.491755 0
1.495214 0
1.498 0
1.500848 0
1.50398 0
1.506821 0
1.509779 0
1.512675 0
1.515286 0
1.518241 0
1.52148 0
1.524218 0
1.526891 0
1.529838 0
1.532772 0
1.53567 0
1.538705 0
1.541354 0
1.54408 0
1.546815 0
1.549712 0
1.552997 0
1.55601 0
1.559349 0
1.562037 0
1.565343 0
1.568136 0
1.571519 0
1.57517 0
1.578157 0
1.581519 0
1.584399 0
1.587499 0
1.590505 0
1.593274 0
1.597351 0
1.600143 0
1.603264 0
1.606432 0
1.609334 0
1.612418 0
1.616606 0
1.620076 0
1.623734 0
1.626699 0
1.6303 0
1.633257 0
1.636338 0
1.639935 0
1.642691 0
1.64604 0
1.648705 0
1.651572 0
1.655475 0
1.658415 0
1.661869 0
1.664648 0
1.667313 0
1.670682 0
1.673448 0
1.676157 0
1.679159 0
1.681842 0
1.68454 0
1.688507 0
1.691407 0
1.69443 0
1.697235 0
1.700183 0
1.703608 0
1.706426 0
1.709725 0
1.712509 0
1.715335 0
1.718351 0
1.721472 0
1.724302 0
1.727581 0
1.730311 0
1.733472 0
1.737203 0
1.740296 0
1.743611 0
1.746338 0
1.74955 0
1.752627 0
1.755647 0
1.759203 0
1.76196 0
1.764779 0
1.768686 0
1.771859 0
1.775159 0
1.778099 0
1.781434 0
1.784167 0
1.787066 0
1.790097 0
1.792899 0
1.796371 0
1.799594 0
1.802682 0
1.806499 0
1.809373 0
1.81209 0
1.815278 0
1.81796 0
1.82158 0
1.82442 0
1.827047 0
1.830141 0
1.832823 0
1.835865 0
1.839739 0
1.842735 0
1.846128 0
1.848869 0
1.85192 0
1.856703 0
1.859758 0
1.863336 0
1.866498 0
1.870442 0
1.873446 0
1.876296 0
1.879536 0
1.882386 0
1.886301 0
1.889219 0
1.891866 0
1.895306 0
1.898045 0
1.901099 0
1.904357 0
1.907225 0
1.91052 0
1.913338 0
1.916221 0
1.919763 0
1.922676 0
1.925979 0
1.92905 0
1.931677 0
1.934771 0
1.937987 0
1.941421 0
1.944305 0
1.947297 0
1.95076 0
1.954087 0
1.95784 0
1.960906 0
1.964034 0
1.967745 0
1.971048 0
1.974207 0
1.97696 0
1.979562 0
1.982845 0
1.986255 0
1.990493 0
1.993835 0
1.997125 0
2.000111 0
2.003246 0
2.010782 0
2.014231 0
2.017099 0
2.020366 0
2.024109 0
2.027092 0
2.02996 0
2.032706 0
2.036067 0
2.040516 0
2.043447 0
2.046442 0
2.049967 0
2.053139 0
2.056006 0
2.058604 0
2.061314 0
2.064165 0
2.06696 0
2.070269 0
2.073098 0
2.076151 0
2.07937 0
2.08232 0
2.085201 0
2.088607 0
2.091548 0
2.094547 0
2.097799 0
2.100478 0
2.103434 0
2.106303 0
2.109164 0
2.11241 0
2.115392 0
2.118493 0
2.121688 0
2.124744 0
2.127956 0
2.131017 0
2.133953 0
2.137429 0
2.140321 0
2.143169 0
2.146202 0
2.148791 0
2.151465 0
2.155134 0
2.157943 0
2.161205 0
2.164153 0
2.166903 0
2.17047 0
2.173571 0
2.176562 0
2.179236 0
2.182879 0
2.186784 0
2.18997 0
2.193119 0
2.196017 0
2.198888 0
2.20191 0
2.205493 0
2.208242 0
2.211176 0
2.214094 0
2.216938 0
2.220284 0
2.223227 0
2.226549 0
2.229898 0
2.23323 0
2.236705 0
2.239688 0
2.243057 0
2.24588 0
2.248832 0
2.25162 0
2.25518 0
2.258311 0
2.261141 0
2.263802 0
2.266632 0
2.270074 0
2.273314 0
2.276336 0
2.279571 0
2.282471 0
2.285489 0
2.288618 0
2.291375 0
2.294189 0
2.29686 0
2.299831 0
2.303044 0
2.306866 0
2.310255 0
2.313062 0
2.315883 0
2.318676 0
2.321853 0
2.324742 0
2.327549 0
2.330311 0
2.333365 0
2.336671 0
2.339587 0
2.342278 0
2.345069 0
2.348354 0
2.351548 0
2.355182 0
2.358043 0
2.361502 0
2.364683 0
2.367472 0
2.370926 0
2.373782 0
2.376665 0
2.379561 0
2.382433 0
2.385567 0
2.389508 0
2.392468 0
2.39522 0
2.397945 0
2.401035 0
2.404546 0
2.407481 0
2.410245 0
2.412916 0
2.415753 0
2.418761 0
2.422919 0
2.426165 0
2.429064 0
2.431755 0
2.434701 0
2.437943 0
2.441036 0
2.443942 0
2.447398 0
2.450727 0
2.45432 0
2.457656 0
2.461193 0
2.464422 0
2.4671 0
2.47017 0
2.473243 0
2.476108 0
2.478875 0
2.482181 0
2.485076 0
2.489571 0
2.492945 0
2.497379 0
2.500815 0
2.504728 0
2.508281 0
2.511651 0
2.514579 0
2.51739 0
2.520476 0
2.52349 0
2.527408 0
2.530693 0
2.53396 0
2.537256 0
2.540363 0
2.543364 0
2.545962 0
2.548645 0
2.551759 0
2.555026 0
2.558321 0
2.561153 0
2.564085 0
2.567249 0
2.570287 0
2.573025 0
2.575803 0
2.578533 0
2.581792 0
2.584661 0
2.587988 0
2.590749 0
2.593793 0
2.59664 0
2.599798 0
2.603035 0
2.606306 0
2.609304 0
2.612192 0
2.615115 0
2.617866 0
2.620722 0
2.623619 0
2.626351 0
2.629324 0
2.632021 0
2.634935 0
2.638031 0
2.640875 0
2.643651 0
2.646855 0
2.650185 0
2.653653 0
2.656653 0
2.659458 0
2.662363 0
2.665395 0
2.668025 0
2.671302 0
2.674304 0
2.678014 0
2.681224 0
2.683886 0
2.686773 0
2.689667 0
2.692728 0
2.695583 0
2.698683 0
2.701977 0
2.704909 0
2.707865 0
2.710861 0
2.713889 0
2.71668 0
2.72412 0
2.72738 0
2.735418 0
2.739336 0
2.743001 0
2.746319 0
2.749431 0
2.752169 0
2.755312 0
2.757982 0
2.760851 0
2.7635 0
2.766092 0
2.768838 0
2.771751 0
2.774624 0
2.777264 0
2.77987 0
2.782784 0
2.786575 0
2.789742 0
2.792856 0
2.796275 0
2.799119 0
2.802374 0
2.805512 0
2.808231 0
2.811328 0
2.814999 0
2.818355 0
2.821274 0
2.824127 0
2.826997 0
2.8298 0
2.832645 0
2.835605 0
2.839498 0
2.842247 0
2.84499 0
2.847735 0
2.850438 0
2.853524 0
2.856261 0
2.858847 0
2.861697 0
2.864676 0
2.868062 0
2.871521 0
2.874989 0
2.878339 0
2.881941 0
2.88501 0
2.888348 0
2.89116 0
2.894182 0
2.896894 0
2.899709 0
2.902337 0
2.905344 0
2.908146 0
2.910878 0
2.913516 0
2.916147 0
2.918955 0
2.922492 0
2.925988 0
2.929335 0
2.932649 0
2.935452 0
2.938682 0
2.941868 0
2.945189 0
2.948503 0
2.95127 0
2.95448 0
2.95767 0
2.960828 0
2.963666 0
2.966399 0
2.969657 0
2.972974 0
2.976358 0
2.979519 0
2.98261 0
2.985659 0
2.988707 0
2.99147 0
2.994688 0
2.997557 0
3.000429 0
3.003782 0
3.0073 0
3.010778 0
3.013707 0
3.016931 0
3.020043 0
3.023124 0
3.025988 0
3.028739 0
3.031359 0
3.034032 0
3.036973 0
3.039821 0
3.042647 0
3.045652 0
3.048823 0
3.051821 0
3.055182 0
3.058451 0
3.061183 0
3.06425 0
3.067696 0
3.071387 0
3.074669 0
3.077533 0
3.080408 0
3.083163 0
3.086018 0
3.088908 0
3.091714 0
3.094708 0
3.097473 0
3.100118 0
3.102956 0
3.106084 0
3.114015 0
3.117108 0
3.120445 0
3.123585 0
3.127048 0
3.129889 0
3.132963 0
3.13566 0
3.138852 0
3.141796 0
3.144563 0
3.147503 0
3.150501 0
3.153445 0
3.156454 0
3.159475 0
3.162582 0
3.165914 0
3.168741 0
3.171677 0
3.174619 0
3.177614 0
3.180375 0
3.183173 0
3.185834 0
3.18927 0
3.191947 0
3.194614 0
3.19726 0
3.200352 0
3.20425 0
3.207137 0
3.209907 0
3.212693 0
3.2156 0
3.218641 0
3.222073 0
3.224911 0
3.227769 0
3.230418 0
3.233063 0
3.236027 0
3.239271 0
3.241988 0
3.244737 0
3.247623 0
3.250728 0
3.254628 0
3.257567 0
3.26057 0
3.264154 0
3.267106 0
3.269948 0
3.272639 0
3.275357 0
3.278143 0
3.280999 0
3.283757 0
3.286533 0
3.289422 0
3.292475 0
3.295856 0
3.298944 0
3.302512 0
3.305882 0
3.309506 0
3.312608 0
3.315274 0
3.318033 0
3.320848 0
3.323684 0
3.326768 0
3.329631 0
3.332518 0
3.335806 0
3.339212 0
3.342063 0
3.345249 0
3.34905 0
3.352055 0
3.35555 0
3.358424 0
3.361166 0
3.364054 0
3.366917 0
3.369718 0
3.372955 0
3.37569 0
3.378606 0
3.38131 0
3.384137 0
3.387067 0
3.390069 0
3.392781 0
3.396818 0
3.400197 0
3.403654 0
3.406693 0
3.409828 0
3.412538 0
3.41517 0
3.417771 0
3.420555 0
3.423648 0
3.426449 0
3.433798 0
3.436954 0
3.439777 0
3.442919 0
3.445637 0
3.448232 0
3.450946 0
3.45374 0
3.456693 0
3.459905 0
3.462864 0
3.465617 0
3.468452 0
3.471748 0
3.474736 0
3.477714 0
3.480688 0
3.483353 0
3.486436 0
3.489322 0
3.492527 0
3.496349 0
3.499257 0
3.501878 0
3.504846 0
3.507613 0
3.510255 0
3.512929 0
3.515612 0
3.518208 0
3.521075 0
3.524108 0
3.527462 0
3.530197 0
3.532963 0
3.535822 0
3.538768 0
3.541827 0
3.544737 0
3.547396 0
3.550264 0
3.55355 0
3.556719 0
3.559438 0
3.562134 0
3.564767 0
3.567509 0
3.570715 0
3.573652 0
3.576312 0
3.578971 0
3.581625 0
3.584431 0
3.587744 0
3.590981 0
3.593659 0
3.596552 0
3.599351 0
3.602149 0
3.605293 0
3.608621 0
3.611609 0
3.614408 0
3.617294 0
3.620332 0
3.623323 0
3.626139 0
3.629435 0
3.632222 0
3.635131 0
3.638494 0
3.641681 0
3.644859 0
3.647527 0
3.650104 0
3.652807 0
3.655873 0
3.659582 0
3.663659 0
3.66649 0
3.669202 0
3.672286 0
3.675233 0
3.678221 0
3.681467 0
3.684901 0
3.688684 0
3.691561 0
3.694289 0
3.697119 0
3.700181 0
3.703156 0
3.706854 0
3.709645 0
3.712454 0
3.715346 0
3.7184 0
3.72178 0
3.725037 0
3.727885 0
3.730892 0
3.733845 0
3.737251 0
3.741005 0
3.744509 0
3.747188 0
3.750071 0
3.752969 0
3.756061 0
3.758923 0
3.761946 0
3.764853 0
3.767661 0
3.770678 0
3.773517 0
3.776211 0
3.779393 0
3.782433 0
3.785392 0
3.788352 0
3.791504 0
3.794396 0
3.797422 0
3.800252 0
3.803467 0
3.80657 0
3.809483 0
3.813143 0
3.815982 0
3.819 0
3.822423 0
3.825409 0
3.828171 0
3.830934 0
3.834309 0
3.837676 0
3.840694 0
3.843778 0
3.846471 0
3.849192 0
3.85192 0
3.855182 0
3.857855 0
3.860456 0
3.863054 0
3.866223 0
3.869645 0
3.87266 0
3.875484 0
3.878198 0
3.881073 0
3.883876 0
3.886957 0
3.889792 0
3.892713 0
3.895921 0
3.898642 0
3.901335 0
3.904505 0
3.907402 0
3.910267 0
3.913408 0
3.916413 0
3.919553 0
3.923 0
3.926 0
3.928869 0
3.931475 0
3.934235 0
3.937727 0
3.940439 0
3.943173 0
3.945937 0
3.948895 0
3.951988 0
3.955204 0
3.958393 0
3.961353 0
3.964522 0
3.967682 0
3.970648 0
3.973505 0
3.976384 0
3.979154 0
3.982007 0
3.985392 0
3.988692 0
3.99146 0
3.994246 0
3.996941 0
3.999578 0
4.002304 0
4.00606 0
4.008841 0
4.011638 0
4.014519 0
4.017552 0
4.021138 0
4.024499 0
4.027625 0
4.030513 0
4.033638 0
4.036876 0
4.039649 0
4.042278 0
4.044885 0
4.047462 0
4.050103 0
4.053058 0
4.056215 0
4.059616 0
4.062377 0
4.065168 0
4.068004 0
4.070862 0
4.073801 0
4.077214 0
4.08042 0
4.083138 0
4.085892 0
4.088669 0
4.091483 0
4.094392 0
4.097262 0
4.100248 0
4.103008 0
4.105956 0
4.108968 0
4.11177 0
4.114455 0
4.121068 0
4.123785 0
4.126434 0
4.129156 0
4.131833 0
4.134687 0
4.137964 0
4.14097 0
4.14487 0
4.148648 0
4.151844 0
4.155009 0
4.158061 0
4.16079 0
4.163506 0
4.166238 0
4.168944 0
4.172467 0
4.175878 0
4.178698 0
4.181386 0
4.184251 0
4.187241 0
4.189948 0
4.193143 0
4.196425 0
4.199358 0
4.202417 0
4.205612 0
4.20909 0
4.212003 0
4.215085 0
4.217658 0
4.220363 0
4.223436 0
4.226158 0
4.228842 0
4.231493 0
4.234147 0
4.236959 0
4.239742 0
4.24273 0
4.246132 0
4.249462 0
4.252442 0
4.255764 0
4.258967 0
4.262267 0
4.265189 0
4.268343 0
4.272229 0
4.275651 0
4.278718 0
4.28138 0
4.284108 0
4.286861 0
4.289886 0
4.292539 0
4.295893 0
4.299136 0
4.30208 0
4.305391 0
4.308304 0
4.311693 0
4.314919 0
4.31772 0
4.320834 0
4.323534 0
4.326148 0
4.328886 0
4.331843 0
4.33461 0
4.338563 0
4.341678 0
4.344762 0
4.348074 0
4.351862 0
4.355377 0
4.358155 0
4.360882 0
4.363771 0
4.366924 0
4.370258 0
4.374101 0
4.376773 0
4.379412 0
4.38222 0
4.38523 0
4.388689 0
4.39149 0
4.39428 0
4.397212 0
4.400092 0
4.403048 0
4.40648 0
4.409564 0
4.412282 0
4.415295 0
4.418107 0
4.421952 0
4.425148 0
4.427979 0
4.430847 0
4.433549 0
4.436338 0
4.439376 0
4.442643 0
4.445416 0
4.448164 0
4.451148 0
4.453911 0
4.456791 0
4.46019 0
4.463283 0
4.466807 0
4.46952 0
4.472711 0
4.475478 0
4.478443 0
4.481486 0
4.484446 0
4.488134 0
4.491561 0
4.494298 0
4.496974 0
4.499852 0
4.502575 0
4.506026 0
4.508982 0
4.511887 0
4.514988 0
4.517942 0
4.521001 0
4.524432 0
4.527585 0
4.530767 0
4.533837 0
4.537215 0
4.540194 0
4.5435 0
4.547068 0
4.550204 0
4.553267 0
4.556787 0
4.559725 0
4.562826 0
4.565627 0
4.568622 0
4.5721 0
4.575071 0
4.577805 0
4.580621 0
4.584104 0
4.586977 0
4.589852 0
4.592912 0
4.595667 0
4.598602 0
4.601281 0
4.604354 0
4.607343 0
4.610473 0
4.613363 0
4.616283 0
4.619023 0
4.622508 0
4.625432 0
4.628293 0
4.631168 0
4.634443 0
4.637307 0
4.640354 0
4.643104 0
4.645734 0
4.649133 0
4.651939 0
4.655191 0
4.658087 0
4.66075 0
4.663887 0
4.667072 0
4.669966 0
4.673235 0
4.676178 0
4.679715 0
4.683446 0
4.686388 0
4.689638 0
4.692478 0
4.695422 0
4.698414 0
4.701385 0
4.704457 0
4.707476 0
4.71015 0
4.712958 0
4.715889 0
4.718865 0
4.722108 0
4.725214 0
4.72833 0
4.73121 0
4.734336 0
4.737317 0
4.740161 0
4.743208 0
4.74599 0
4.749041 0
4.752076 0
4.755232 0
4.758214 0
4.761174 0
4.764337 0
4.767245 0
4.770442 0
4.773529 0
4.776325 0
4.779258 0
4.781972 0
4.784809 0
4.787568 0
4.790683 0
4.793482 0
4.796178 0
4.799076 0
4.801731 0
4.804585 0
4.807924 0
4.81144 0
4.814827 0
4.822681 0
4.825677 0
4.828683 0
4.831633 0
4.83475 0
4.837626 0
4.840747 0
4.843409 0
4.84603 0
4.848604 0
4.851212 0
4.85423 0
4.857715 0
4.860715 0
4.863791 0
4.866434 0
4.869009 0
4.872588 0
4.875288 0
4.878032 0
4.88083 0
4.88369 0
4.886703 0
4.889817 0
4.892809 0
4.895745 0
4.898352 0
4.900889 0
4.903781 0
4.906689 0
4.909678 0
4.912481 0
4.915129 0
4.917768 0
4.92065 0
4.923367 0
4.92599 0
4.928607 0
4.93123 0
4.933992 0
4.937027 0
4.939783 0
4.942348 0
4.944981 0
4.947671 0
4.950747 0
4.954253 0
4.957247 0
4.960082 0
4.96318 0
4.96603 0
4.969081 0
4.972719 0
4.975776 0
4.978473 0
4.981472 0
4.984426 0
4.987319 0
4.990273 0
4.993119 0
4.995986 0
4.999104 0
5.002277 0
5.005874 0
5.009381 0
5.012152 0
5.015044 0
5.017915 0
5.021273 0
5.024487 0
5.027127 0
5.029867 0
5.032915 0
5.036031 0
5.03933 0
5.042422 0
5.045968 0
5.049096 0
5.052167 0
5.055428 0
5.058333 0
5.061276 0
5.064007 0
5.066579 0
5.069162 0
5.072253 0
5.075137 0
5.078124 0
5.081683 0
5.084369 0
5.087144 0
5.089969 0
5.093405 0
5.096365 0
5.099081 0
5.102106 0
5.105741 0
5.108685 0
5.11168 0
5.114458 0
5.117304 0
5.120192 0
5.124059 0
5.126936 0
5.129781 0
5.13245 0
5.135245 0
5.138559 0
5.141387 0
5.144286 0
5.147128 0
5.150158 0
5.153116 0
5.15636 0
5.159302 0
5.162353 0
5.165055 0
5.167952 0
5.170901 0
5.173984 0
5.176737 0
5.179739 0
5.182975 0
5.185852 0
5.189086 0
5.191966 0
5.19487 0
5.198149 0
5.200863 0
5.203994 0
5.206859 0
5.209721 0
5.212625 0
5.215402 0
5.218017 0
5.221237 0
5.224568 0
5.227437 0
5.230144 0
5.233101 0
5.236696 0
5.239847 0
5.243093 0
5.246434 0
5.249568 0
5.252765 0
5.255721 0
5.258639 0
5.26146 0
5.264425 0
5.267467 0
5.270298 0
5.273346 0
5.276365 0
5.279049 0
5.281964 0
5.285143 0
5.288174 0
5.291024 0
5.293814 0
5.296723 0
5.29986 0
5.302611 0
5.305944 0
5.30891 0
5.311919 0
5.315315 0
5.318663 0
5.321803 0
5.32497 0
5.32819 0
5.330834 0
5.333507 0
5.336892 0
5.339777 0
5.343261 0
5.346271 0
5.349226 0
5.352517 0
5.355636 0
5.35855 0
5.361622 0
5.364407 0
5.367097 0
5.370019 0
5.373107 0
5.375944 0
5.378768 0
5.38187 0
5.384916 0
5.388529 0
5.392134 0
5.395025 0
5.398282 0
5.401267 0
5.404692 0
5.407585 0
5.410161 0
5.412941 0
5.415674 0
5.418358 0
5.421248 0
5.424304 0
5.427125 0
5.429952 0
5.433515 0
5.436785 0
5.44005 0
5.442995 0
5.446022 0
5.448616 0
5.451252 0
5.454502 0
5.457476 0
5.460525 0
5.463463 0
5.466152 0
5.468886 0
5.471607 0
5.474536 0
5.477269 0
5.479949 0
5.482721 0
5.485332 0
5.488217 0
5.491153 0
5.493919 0
5.496783 0
5.500297 0
5.508083 0
5.51199 0
5.515037 0
5.518055 0
5.52096 0
5.523833 0
5.526904 0
5.530359 0
5.533143 0
5.536511 0
5.539696 0
5.542866 0
5.545949 0
5.548609 0
5.551717 0
5.555073 0
5.557886 0
5.560691 0
5.56373 0
5.566572 0
5.569507 0
5.572887 0
5.575922 0
5.578943 0
5.582626 0
5.585673 0
5.588944 0
5.591851 0
5.59479 0
5.597561 0
5.600373 0
5.603799 0
5.606858 0
5.60976 0
5.612944 0
5.616175 0
5.619303 0
5.622538 0
5.625536 0
5.628618 0
5.632189 0
5.635654 0
5.639052 0
5.641903 0
5.64474 0
5.647469 0
5.650336 0
5.653288 0
5.656407 0
5.660019 0
5.662852 0
5.665807 0
5.668826 0
5.672227 0
5.675018 0
5.677804 0
5.680725 0
5.683983 0
5.68673 0
5.689785 0
5.69285 0
5.695516 0
5.698347 0
5.701141 0
5.704432 0
5.707398 0
5.710456 0
5.713309 0
5.716368 0
5.719662 0
5.722975 0
5.725997 0
5.728702 0
5.731584 0
5.734453 0
5.737551 0
5.74129 0
5.744836 0
5.748158 0
5.751168 0
5.754422 0
5.757479 0
5.760529 0
5.763494 0
5.766994 0
5.770279 0
5.773263 0
5.775897 0
5.778543 0
5.781258 0
5.783938 0
5.786839 0
5.790233 0
5.793085 0
5.796125 0
5.79948 0
5.80257 0
5.806089 0
5.809102 0
5.812206 0
5.815308 0
5.818727 0
5.821849 0
5.82499 0
5.828483 0
5.831613 0
5.834337 0
5.837585 0
5.840324 0
5.843051 0
5.846021 0
5.848882 0
5.851885 0
5.856085 0
5.859498 0
5.862898 0
5.866194 0
5.86961 0
5.872727 0
5.875472 0
5.878482 0
5.881659 0
5.885132 0
5.888061 0
5.891064 0
5.894097 0
5.896824 0
5.89969 0
5.9028 0
5.906232 0
5.909567 0
5.912676 0
5.915648 0
5.918525 0
5.921575 0
5.924679 0
5.927529 0
5.930327 0
5.933183 0
5.936285 0
5.939227 0
5.942582 0
5.945545 0
5.948243 0
5.951037 0
5.954295 0
5.95752 0
5.960493 0
5.963322 0
5.966005 0
5.968633 0
5.97152 0
5.974844 0
5.978087 0
5.980749 0
5.983782 0
5.987317 0
5.990576 0
5.993661 0
5.996707 0
6.000152 0
6.003227 0
6.006399 0
6.00955 0
6.012938 0
6.016117 0
6.019117 0
6.022238 0
6.025233 0
6.028295 0
6.031786 0
6.034588 0
6.038056 0
6.041945 0
6.045883 0
6.049543 0
6.05243 0
6.05613 0
6.059444 0
6.062517 0
6.065455 0
6.068275 0
6.071515 0
6.074404 0
6.077039 0
6.079716 0
6.082394 0
6.085214 0
6.088551 0
6.091441 0
6.094914 0
6.098414 0
6.101731 0
6.106224 0
6.109669 0
6.112526 0
6.115609 0
6.118866 0
6.122256 0
6.12516 0
6.127992 0
6.130653 0
6.133528 0
6.136242 0
6.139101 0
6.14186 0
6.144783 0
6.147599 0
6.150322 0
6.15328 0
6.156142 0
6.159004 0
6.162023 0
6.165442 0
6.168251 0
6.171391 0
6.175088 0
6.178343 0
6.181099 0
6.183901 0
6.187028 0
6.189776 0
6.192535 0
6.196214 0
6.198877 0
6.201534 0
6.204291 0
6.207098 0
6.209811 0
6.212495 0
6.21916 0
6.222144 0
6.225356 0
6.228343 0
6.23211 0
6.235247 0
6.23845 0
6.241499 0
6.24458 0
6.247346 0
6.250358 0
6.253166 0
6.256797 0
6.259634 0
6.262423 0
6.265081 0
6.267726 0
6.270356 0
6.273401 0
6.276159 0
6.279078 0
6.281948 0
6.285525 0
6.289109 0
6.291899 0
6.29494 0
6.298086 0
6.300703 0
6.303714 0
6.306591 0
6.309352 0
6.31228 0
6.315035 0
6.317772 0
6.321102 0
6.324433 0
6.327299 0
6.329967 0
6.333429 0
6.336674 0
6.339622 0
6.342504 0
6.345348 0
6.348381 0
6.351318 0
6.354438 0
6.357864 0
6.361039 0
6.363973 0
6.367052 0
6.37012 0
6.373132 0
6.376489 0
6.379546 0
6.383129 0
6.386075 0
6.388831 0
6.391526 0
6.394254 0
6.397116 0
6.400273 0
6.403021 0
6.406526 0
6.409573 0
6.412573 0
6.41562 0
6.419141 0
6.423061 0
6.42621 0
6.429253 0
6.431873 0
6.434634 0
6.437551 0
6.440836 0
6.443629 0
6.446537 0
6.449565 0
6.452621 0
6.455705 0
6.458553 0
6.461529 0
6.464568 0
6.467716 0
6.470589 0
6.47333 0
6.476234 0
6.479075 0
6.481914 0
6.484694 0
6.487698 0
6.490681 0
6.493405 0
6.496049 0
6.498934 0
6.501921 0
6.504985 0
6.508763 0
6.511552 0
6.514546 0
6.537867 0
6.541283 0
6.544653 0
6.54759 0
6.550362 0
6.552954 0
6.556114 0
6.559324 0
6.562484 0
6.565388 0
6.56834 0
6.571754 0
6.574777 0
6.577689 0
6.58052 0
6.583588 0
6.587111 0
6.590372 0
6.623705 0
6.657039 0
6.662055 0
6.671376 0
6.676689 0
6.681752 0
6.689559 0
6.695989 0
6.702991 0
6.708727 0
6.712994 0
6.718563 0
6.722737 0
6.727607 0
6.732487 0
6.736884 0
6.741015 0
6.74515 0
6.751524 0
6.755459 0
6.759423 0
6.763355 0
6.768204 0
6.772242 0
6.776617 0
6.780828 0
6.789223 0
6.793209 0
6.797659 0
6.802336 0
6.806625 0
6.811547 0
6.816376 0
6.820706 0
6.825513 0
6.829408 0
6.834558 0
6.839092 0
6.843421 0
6.847626 0
6.852836 0
6.856798 0
6.860683 0
6.864303 0
6.869227 0
6.873527 0
6.878522 0
6.885111 0
6.89046 0
6.897628 0
6.902574 0
6.906949 0
6.911068 0
6.91775 0
6.923521 0
6.928546 0
6.934647 0
6.938353 0
6.941932 0
6.94638 0
6.950837 0
6.954741 0
6.959081 0
6.963494 0
6.968836 0
6.973563 0
6.978545 0
6.984076 0
6.988734 0
6.993785 0
6.999557 0
7.004767 0
7.009653 0
7.015158 0
7.020593 0
7.026711 0
7.033402 0
7.038635 0
7.043404 0
7.048892 0
7.05345 0
7.057471 0
7.061797 0
7.067398 0
7.072001 0
7.07617 0
7.080194 0
7.084988 0
7.089082 0
7.092749 0
7.096394 0
7.101077 0
7.104911 0
7.108495 0
7.111959 0
7.116541 0
7.120299 0
7.123993 0
7.127752 0
7.131369 0
7.135386 0
7.139189 0
7.14276 0
7.14653 0
7.151357 0
7.155098 0
7.162881 0
7.16657 0
7.170156 0
7.173465 0
7.176873 0
7.180066 0
7.184202 0
7.187196 0
7.190825 0
7.19479 0
7.198771 0
7.202298 0
7.205577 0
7.2087 0
7.212006 0
7.216128 0
7.219953 0
7.222985 0
7.226269 0
7.229679 0
7.233645 0
7.237432 0
7.240457 0
7.243655 0
7.247058 0
7.250936 0
7.254478 0
7.258302 0
7.261899 0
7.265643 0
7.269621 0
7.273162 0
7.27643 0
7.279914 0
7.284389 0
7.287409 0
7.291317 0
7.294714 0
7.298341 0
7.302264 0
7.305912 0
7.30925 0
7.312547 0
7.316267 0
7.31985 0
7.323448 0
7.326513 0
7.329999 0
7.334424 0
7.33773 0
7.3416 0
7.345832 0
7.349563 0
7.352821 0
7.356127 0
7.359601 0
7.363461 0
7.367389 0
7.370623 0
7.374053 0
7.377521 0
7.380976 0
7.385259 0
7.388517 0
7.392181 0
7.395287 0
7.399172 0
7.40839 0
7.411994 0
7.422176 0
7.425407 0
7.428841 0
7.432492 0
7.43583 0
7.439366 0
7.442805 0
7.445828 0
7.449554 0
7.452843 0
7.456298 0
7.459853 0
7.462893 0
7.466428 0
7.469788 0
7.473388 0
7.476653 0
7.479909 0
7.484319 0
7.487912 0
7.491409 0
7.49508 0
7.499324 0
7.503304 0
7.506415 0
7.510147 0
7.513692 0
7.518443 0
7.521333 0
7.524822 0
7.528992 0
7.533493 0
7.536776 0
7.54039 0
7.544082 0
7.54796 0
7.552273 0
7.555843 0
7.558877 0
7.562562 0
7.566365 0
7.570114 0
7.573567 0
7.577464 0
7.581157 0
7.584901 0
7.588512 0
7.592513 0
7.596837 0
7.601497 0
7.604663 0
7.608397 0
7.611994 0
7.616575 0
7.619687 0
7.623065 0
7.626757 0
7.630234 0
7.634489 0
7.638505 0
7.642409 0
7.645902 0
7.649558 0
7.653288 0
7.656394 0
7.659923 0
7.66357 0
7.668166 0
7.672191 0
7.676212 0
7.679996 0
7.684794 0
7.688311 0
7.691997 0
7.695356 0
7.700348 0
7.704119 0
7.708004 0
7.711817 0
7.716229 0
7.720493 0
7.72401 0
7.727756 0
7.732312 0
7.736081 0
7.739631 0
7.743052 0
7.747513 0
7.752367 0
7.756038 0
7.75956 0
7.762974 0
7.767214 0
7.770228 0
7.773602 0
7.777358 0
7.780313 0
7.784532 0
7.787666 0
7.791521 0
7.794673 0
7.799041 0
7.802667 0
7.805652 0
7.809201 0
7.812871 0
7.816886 0
7.820829 0
7.824183 0
7.827708 0
7.831183 0
7.835476 0
7.839466 0
7.842729 0
7.846597 0
7.851291 0
7.85473 0
7.858413 0
7.861779 0
7.865217 0
7.869541 0
7.872854 0
7.876282 0
7.879808 0
7.883945 0
7.887358 0
7.891325 0
7.895094 0
7.89982 0
7.90318 0
7.906638 0
7.910295 0
7.913968 0
7.91774 0
7.921255 0
7.924654 0
7.927971 0
7.931528 0
7.935902 0
7.939854 0
7.943902 0
7.946933 0
7.951386 0
7.954683 0
7.95813 0
7.961625 0
7.965084 0
7.968678 0
7.971709 0
7.97543 0
7.979527 0
7.983902 0
7.988071 0
7.991692 0
7.99471 0
7.998559 0
8.002048 0
8.005369 0
8.008806 0
8.011832 0
8.015121 0
8.02343 0
8.027451 0
8.031083 0
8.035401 0
8.039341 0
8.042718 0
8.046255 0
8.050493 0
8.054383 0
8.058209 0
8.061442 0
8.065184 0
8.069488 0
8.07327 0
8.077003 0
8.080465 0
8.084893 0
8.088 0
8.091494 0
8.094831 0
8.098418 0
8.102365 0
8.105899 0
8.109676 0
8.113134 0
8.117993 0
8.121197 0
8.124584 0
8.127615 0
8.130999 0
8.134479 0
8.137656 0
8.141214 0
8.144794 0
8.14811 0
8.151849 0
8.155003 0
8.158688 0
8.162215 0
8.166513 0
8.170563 0
8.174628 0
8.178241 0
8.182846 0
8.186462 0
8.189875 0
8.193329 0
8.197536 0
8.201578 0
8.204885 0
8.208343 0
8.21244 0
8.216235 0
8.219762 0
8.223567 0
8.227416 0
8.230871 0
8.234665 0
8.238403 0
8.241551 0
8.244835 0
8.248345 0
8.25185 0
8.255332 0
8.259331 0
8.263472 0
8.267887 0
8.271292 0
8.274516 0
8.277904 0
8.281192 0
8.285008 0
8.288085 0
8.29182 0
8.295375 0
8.29887 0
8.302728 0
8.307016 0
8.310369 0
8.314065 0
8.317945 0
8.321327 0
8.324713 0
8.328409 0
8.331981 0
8.335634 0
8.338907 0
8.342335 0
8.346172 0
8.34996 0
8.353958 0
8.357873 0
8.36154 0
8.365056 0
8.36918 0
8.372567 0
8.375926 0
8.379583 0
8.38341 0
8.387028 0
8.391261 0
8.395083 0
8.398911 0
8.402933 0
8.406572 0
8.409901 0
8.413474 0
8.41723 0
8.420822 0
8.424514 0
8.42808 0
8.431561 0
8.435178 0
8.438595 0
8.442595 0
8.445738 0
8.449097 0
8.453032 0
8.456321 0
8.460202 0
8.463708 0
8.468516 0
8.47176 0
8.474981 0
8.478338 0
8.481824 0
8.485604 0
8.489068 0
8.492568 0
8.496181 0
8.501083 0
8.50479 0
8.508064 0
8.511534 0
8.516132 0
8.51989 0
8.523472 0
8.52729 0
8.530897 0
8.535149 0
8.539172 0
8.542401 0
8.545918 0
8.549075 0
8.552781 0
8.556081 0
8.559998 0
8.56357 0
8.567941 0
8.571303 0
8.575162 0
8.57884 0
8.582395 0
8.586936 0
8.590482 0
8.595037 0
8.598743 0
8.603258 0
8.606899 0
8.610447 0
8.614128 0
8.618494 0
8.621711 0
8.625242 0
8.628708 0
8.631971 0
8.636809 0
8.640266 0
8.643639 0
8.647368 0
8.651938 0
8.655066 0
8.658372 0
8.661432 0
8.665271 0
8.670114 0
8.673922 0
8.67769 0
8.682353 0
8.685766 0
8.689532 0
8.693261 0
8.697764 0
8.701267 0
8.704896 0
8.708073 0
8.711452 0
8.716512 0
8.720524 0
8.723755 0
8.726918 0
8.730935 0
8.734919 0
8.738631 0
8.741801 0
8.745825 0
8.74996 0
8.754138 0
8.7578 0
8.76199 0
8.766323 0
8.770378 0
8.773556 0
8.777086 0
8.780284 0
8.784225 0
8.787704 0
8.791112 0
8.795036 0
8.799074 0
8.802608 0
8.806376 0
8.810773 0
8.814206 0
8.818962 0
8.822262 0
8.826797 0
8.829967 0
8.834069 0
8.837493 0
8.841063 0
8.844515 0
8.84797 0
8.853328 0
8.857153 0
8.860518 0
8.86383 0
8.868402 0
8.871725 0
8.879992 0
8.883775 0
8.886934 0
8.890408 0
8.893538 0
8.897098 0
8.901026 0
8.905294 0
8.908829 0
8.913043 0
8.916559 0
8.920737 0
8.924037 0
8.927475 0
8.931358 0
8.935353 0
8.939678 0
8.942993 0
8.946733 0
8.95039 0
8.954121 0
8.957788 0
8.961589 0
8.964998 0
8.969111 0
8.972357 0
8.975879 0
8.980366 0
8.984951 0
8.988406 0
8.991984 0
8.996386 0
9.000458 0
9.005217 0
9.008884 0
9.012271 0
9.015643 0
9.020189 0
9.023415 0
9.027352 0
9.030481 0
9.034924 0
9.038081 0
9.041725 0
9.044955 0
9.048015 0
9.052249 0
9.055383 0
9.059361 0
9.062661 0
9.066533 0
9.070235 0
9.073744 0
9.076868 0
9.08009 0
9.084181 0
9.088024 0
9.092257 0
9.095503 0
9.100039 0
9.103259 0
9.106687 0
9.110063 0
9.113559 0
9.117212 0
9.121464 0
9.125042 0
9.128777 0
9.132306 0
9.137213 0
9.140703 0
9.144773 0
9.148189 0
9.151775 0
9.155397 0
9.159083 0
9.163095 0
9.166973 0
9.170921 0
9.174304 0
9.178018 0
9.181314 0
9.18616 0
9.189941 0
9.193653 0
9.196961 0
9.201731 0
9.204978 0
9.208043 0
9.212007 0
9.215498 0
9.219566 0
9.222917 0
9.226611 0
9.229835 0
9.233848 0
9.237319 0
9.241263 0
9.244798 0
9.248812 0
9.253013 0
9.256737 0
9.259858 0
9.263437 0
9.267816 0
9.271278 0
9.274718 0
9.278242 0
9.281877 0
9.286031 0
9.289706 0
9.292873 0
9.297205 0
9.300941 0
9.304737 0
9.308284 0
9.311744 0
9.315338 0
9.319101 0
9.322027 0
9.325397 0
9.329007 0
9.332983 0
9.336626 0
9.339758 0
9.343006 0
9.346272 0
9.350316 0
9.353711 0
9.357224 0
9.36089 0
9.364541 0
9.369214 0
9.373058 0
9.37669 0
9.379912 0
9.383989 0
9.387774 0
9.391117 0
9.394606 0
9.39797 0
9.402901 0
9.406157 0
9.409885 0
9.413409 0
9.418196 0
9.421456 0
9.425284 0
9.42872 0
9.432732 0
9.436672 0
9.439899 0
9.443933 0
9.447416 0
9.452493 0
9.456001 0
9.460318 0
9.463696 0
9.468102 0
9.471381 0
9.475252 0
9.479053 0
9.484228 0
9.487567 0
9.491091 0
9.494383 0
9.500266 0
9.505781 0
9.508917 0
9.513344 0
9.517934 0
9.52201 0
9.525067 0
9.529275 0
9.533363 0
9.537607 0
9.541146 0
9.545234 0
9.548975 0
9.553241 0
9.557291 0
9.561383 0
9.564737 0
9.568891 0
9.572268 0
9.575768 0
9.579679 0
9.583765 0
9.58795 0
9.5915 0
9.596481 0
9.601187 0
9.60476 0
9.608141 0
9.611721 0
9.615293 0
9.619397 0
9.622689 0
9.626263 0
9.629627 0
9.634236 0
9.637894 0
9.641954 0
9.645565 0
9.650695 0
9.654825 0
9.658742 0
9.662421 0
9.666437 0
9.670218 0
9.673983 0
9.677365 0
9.681323 0
9.686256 0
9.690022 0
9.693435 0
9.697479 0
9.702229 0
9.706324 0
9.709379 0
9.713252 0
9.717993 0
9.722134 0
9.726234 0
9.729921 0
9.733766 0
9.737897 0
9.741001 0
9.74479 0
9.754385 0
9.758584 0
9.762105 0
9.765511 0
9.769718 0
9.772811 0
9.776373 0
9.77977 0
9.782951 0
9.786518 0
9.789809 0
9.793276 0
9.796535 0
9.800005 0
9.803782 0
9.80689 0
9.810022 0
9.813477 0
9.81801 0
9.821296 0
9.824856 0
9.828275 0
9.831685 0
9.835852 0
9.839516 0
9.843198 0
9.847327 0
9.851641 0
9.854631 0
9.858284 0
9.861253 0
9.86498 0
9.868951 0
9.872308 0
9.875925 0
9.879585 0
9.883919 0
9.887524 0
9.890956 0
9.894703 0
9.898099 0
9.902721 0
9.906458 0
9.910162 0
9.913963 0
9.91865 0
9.9226 0
9.926753 0
9.930887 0
9.935189 0
9.939621 0
9.943493 0
9.94685 0
9.950455 0
9.95421 0
9.957873 0
9.96185 0
9.965566 0
9.970251 0
9.973726 0
9.977295 0
9.980762 0
9.984915 0
9.98815 0
9.991673 0
9.995667 0
9.999082 0
10.00296 0
10.00612 0
10.00966 0
10.01276 0
10.01676 0
10.02061 0
10.02374 0
10.02781 0
10.03139 0
10.03555 0
10.03867 0
10.04199 0
10.04565 0
10.04925 0
10.053 0
10.05667 0
10.06034 0
10.06411 0
10.06827 0
10.07167 0
10.07535 0
10.0787 0
10.08265 0
10.0868 0
10.09002 0
10.09347 0
10.0972 0
10.10105 0
10.10462 0
10.10795 0
10.11163 0
10.115 0
10.11909 0
10.1221 0
10.12605 0
10.12946 0
10.13276 0
10.13653 0
10.14005 0
10.14367 0
10.14713 0
10.15119 0
10.1578 0
10.16159 0
10.16463 0
10.16935 0
10.17334 0
10.17623 0
10.17948 0
10.18295 0
10.18733 0
10.19141 0
10.19502 0
10.19885 0
10.20273 0
10.20616 0
10.21021 0
10.21405 0
10.21884 0
10.22194 0
10.2252 0
10.22861 0
10.23251 0
10.23753 0
10.24178 0
10.24551 0
10.25107 0
10.25549 0
10.25912 0
10.26257 0
10.26686 0
10.27075 0
10.27379 0
10.27758 0
10.28112 0
10.2853 0
10.28866 0
10.29218 0
10.29551 0
10.29887 0
10.30293 0
10.30613 0
10.30986 0
10.31289 0
10.31616 0
10.31985 0
10.32355 0
10.32685 0
10.32991 0
10.33378 0
10.33756 0
10.34107 0
10.34421 0
10.34743 0
10.35134 0
10.35491 0
10.35839 0
10.36187 0
10.36489 0
10.36901 0
10.3727 0
10.37654 0
10.37961 0
10.38348 0
10.38756 0
10.39092 0
10.3942 0
10.39732 0
10.40103 0
10.40443 0
10.40755 0
10.41073 0
10.41397 0
10.41806 0
10.42184 0
10.42524 0
10.42878 0
10.43229 0
10.43649 0
10.43993 0
10.4436 0
10.44745 0
10.45172 0
10.45518 0
10.45863 0
10.46194 0
10.46617 0
10.47031 0
10.47456 0
10.47779 0
10.48199 0
10.48623 0
10.48968 0
10.49266 0
10.49639 0
10.49953 0
10.50312 0
10.50625 0
10.50963 0
10.51329 0
10.51675 0
10.52039 0
10.52326 0
10.52681 0
10.53046 0
10.53471 0
10.53842 0
10.54146 0
10.54484 0
10.5481 0
10.55217 0
10.55612 0
10.5596 0
10.56338 0
10.56722 0
10.57071 0
10.5744 0
10.57774 0
10.58089 0
10.58473 0
10.5881 0
10.59157 0
10.59969 0
10.60354 0
10.60656 0
10.61013 0
10.61385 0
10.61814 0
10.6222 0
10.62545 0
10.62877 0
10.63202 0
10.63631 0
10.63967 0
10.64339 0
10.64655 0
10.65106 0
10.65481 0
10.65854 0
10.66167 0
10.66534 0
10.67033 0
10.67545 0
10.67841 0
10.68214 0
10.6868 0
10.69018 0
10.69346 0
10.69784 0
10.7015 0
10.70585 0
10.70914 0
10.71217 0
10.71623 0
10.71995 0
10.7236 0
10.72732 0
10.73125 0
10.73513 0
10.73924 0
10.74258 0
10.74688 0
10.7511 0
10.75463 0
10.75786 0
10.76194 0
10.76576 0
10.77069 0
10.77389 0
10.77853 0
10.78184 0
10.78587 0
10.78906 0
10.79228 0
10.79613 0
10.79969 0
10.80377 0
10.80714 0
10.81126 0
10.81434 0
10.81852 0
10.82224 0
10.82646 0
10.82952 0
10.83254 0
10.83659 0
10.83975 0
10.84397 0
10.84731 0
10.85147 0
10.8546 0
10.85853 0
10.862 0
10.86707 0
10.8706 0
10.87608 0
10.87938 0
10.88298 0
10.88671 0
10.89053 0
10.89411 0
10.89778 0
10.9014 0
10.90459 0
10.90792 0
10.91151 0
10.91537 0
10.91973 0
10.92258 0
10.92577 0
10.92962 0
10.934 0
10.93757 0
10.94085 0
10.94447 0
10.94801 0
10.95244 0
10.95572 0
10.95928 0
10.96252 0
10.96628 0
10.97 0
10.97378 0
10.97713 0
10.98089 0
10.98506 0
10.98914 0
10.9924 0
10.9958 0
10.99965 0
11.00373 0
11.00685 0
11.01013 0
11.01335 0
11.01663 0
11.02053 0
11.0244 0
11.02799 0
11.03115 0
11.03516 0
11.03877 0
11.04261 0
11.0459 0
11.05041 0
11.05393 0
11.05759 0
11.06062 0
11.06393 0
11.06812 0
11.07221 0
11.07563 0
11.07891 0
11.08322 0
11.08694 0
11.0908 0
11.09406 0
11.09747 0
11.10128 0
11.10501 0
11.1082 0
11.11151 0
11.11534 0
11.11956 0
11.12314 0
11.12648 0
11.13053 0
11.1345 0
11.13829 0
11.14175 0
11.1456 0
11.14928 0
11.1534 0
11.15712 0
11.1615 0
11.16469 0
11.16977 0
11.17325 0
11.17696 0
11.18012 0
11.18368 0
11.18865 0
11.19198 0
11.19562 0
11.19907 0
11.20366 0
11.20729 0
11.21125 0
11.21452 0
11.21873 0
11.22255 0
11.22633 0
11.2296 0
11.23429 0
11.23766 0
11.24089 0
11.24411 0
11.247 0
11.25163 0
11.25537 0
11.25972 0
11.26339 0
11.26733 0
11.27128 0
11.27533 0
11.27869 0
11.2831 0
11.28686 0
11.29019 0
11.29353 0
11.29742 0
11.30154 0
11.30538 0
11.30894 0
11.31236 0
11.31699 0
11.32067 0
11.32398 0
11.32751 0
11.33119 0
11.33473 0
11.33823 0
11.34134 0
11.34506 0
11.34869 0
11.353 0
11.35714 0
11.36074 0
11.36447 0
11.36824 0
11.37201 0
11.37541 0
11.37918 0
11.3823 0
11.38641 0
11.38974 0
11.39413 0
11.39729 0
11.40142 0
11.40493 0
11.4087 0
11.41183 0
11.41488 0
11.42016 0
11.42327 0
11.42672 0
11.43032 0
11.43484 0
11.43835 0
11.44163 0
11.44515 0
11.4487 0
11.45742 0
11.46055 0
11.46378 0
11.46742 0
11.47159 0
11.47527 0
11.47849 0
11.48174 0
11.48646 0
11.49002 0
11.49342 0
11.49711 0
11.50154 0
11.50564 0
11.50911 0
11.51247 0
11.51618 0
11.51986 0
11.52299 0
11.52672 0
11.56005 0
11.57163 0
11.57674 0
11.58001 0
11.58328 0
11.58672 0
11.59097 0
11.59446 0
11.59818 0
11.60226 0
11.60685 0
11.61058 0
11.61392 0
11.61765 0
11.62134 0
11.62551 0
11.62865 0
11.63242 0
11.63627 0
11.64025 0
11.64361 0
11.64721 0
11.65093 0
11.65503 0
11.6596 0
11.66341 0
11.66697 0
11.67048 0
11.67462 0
11.67781 0
11.68143 0
11.68505 0
11.68956 0
11.69301 0
11.69694 0
11.70073 0
11.7042 0
11.70839 0
11.71156 0
11.71536 0
11.71877 0
11.72239 0
11.72636 0
11.73031 0
11.73429 0
11.73862 0
11.74263 0
11.74623 0
11.74967 0
11.75324 0
11.75705 0
11.76054 0
11.76381 0
11.76744 0
11.77201 0
11.77673 0
11.77995 0
11.78394 0
11.78754 0
11.79156 0
11.79499 0
11.79858 0
11.80214 0
11.80589 0
11.80967 0
11.81266 0
11.81602 0
11.81979 0
11.82424 0
11.82865 0
11.83221 0
11.83533 0
11.83912 0
11.84277 0
11.84596 0
11.85011 0
11.85401 0
11.8588 0
11.86249 0
11.86678 0
11.87028 0
11.87457 0
11.87764 0
11.88122 0
11.88478 0
11.8893 0
11.89292 0
11.89853 0
11.90224 0
11.90588 0
11.90968 0
11.91374 0
11.9172 0
11.92136 0
11.92551 0
11.92909 0
11.93233 0
11.93573 0
11.94016 0
11.94379 0
11.94723 0
11.95043 0
11.95429 0
11.95831 0
11.96265 0
11.96608 0
11.96975 0
11.97352 0
11.97768 0
11.98113 0
11.98442 0
11.98866 0
11.99319 0
11.99637 0
11.99941 0
12.00312 0
12.00749 0
12.0113 0
12.01522 0
12.01892 0
12.02286 0
12.0268 0
12.03009 0
12.03376 0
12.03754 0
12.04209 0
12.04529 0
12.04945 0
12.05276 0
12.05624 0
12.06041 0
12.0637 0
12.06764 0
12.07118 0
12.07516 0
12.0784 0
12.08267 0
12.08603 0
12.09036 0
12.09353 0
12.09643 0
12.10036 0
12.1039 0
12.10817 0
12.11153 0
12.11605 0
12.11913 0
12.12352 0
12.12674 0
12.1303 0
12.13342 0
12.1369 0
12.14059 0
12.14409 0
12.14876 0
12.15283 0
12.15652 0
12.16 0
12.16376 0
12.16719 0
12.17136 0
12.17531 0
12.17871 0
12.1822 0
12.18617 0
12.19 0
12.19414 0
12.19768 0
12.20203 0
12.20687 0
12.21075 0
12.21402 0
12.21795 0
12.22137 0
12.2256 0
12.22899 0
12.23311 0
12.23629 0
12.24122 0
12.24471 0
12.24777 0
12.25142 0
12.25467 0
12.25861 0
12.26624 0
12.26945 0
12.27427 0
12.2779 0
12.28215 0
12.28565 0
12.29017 0
12.2934 0
12.29811 0
12.30133 0
12.30435 0
12.30938 0
12.31351 0
12.31654 0
12.31986 0
12.32421 0
12.32754 0
12.33133 0
12.3358 0
12.34043 0
12.34404 0
12.34732 0
12.35082 0
12.35492 0
12.35871 0
12.3617 0
12.36521 0
12.36897 0
12.373 0
12.37694 0
12.38004 0
12.38381 0
12.38799 0
12.39195 0
12.39535 0
12.39856 0
12.40193 0
12.4053 0
12.40919 0
12.41233 0
12.4155 0
12.41957 0
12.42427 0
12.42876 0
12.43225 0
12.43563 0
12.43994 0
12.4439 0
12.44731 0
12.45143 0
12.4549 0
12.45849 0
12.46171 0
12.46547 0
12.46908 0
12.47406 0
12.47734 0
12.48089 0
12.4842 0
12.48745 0
12.49247 0
12.49591 0
12.50042 0
12.50401 0
12.50912 0
12.51308 0
12.5165 0
12.51991 0
12.52457 0
12.52806 0
12.53204 0
12.5354 0
12.53995 0
12.54333 0
12.54725 0
12.55039 0
12.55405 0
12.55774 0
12.56141 0
12.56454 0
12.56789 0
12.57217 0
12.57582 0
12.57908 0
12.58261 0
12.58694 0
12.59107 0
12.59435 0
12.59752 0
12.60148 0
12.60528 0
12.60921 0
12.61235 0
12.61559 0
12.61883 0
12.62248 0
12.62675 0
12.63024 0
12.63359 0
12.63751 0
12.64186 0
12.64525 0
12.64906 0
12.65301 0
12.6573 0
12.66101 0
12.6642 0
12.6678 0
12.67196 0
12.67651 0
12.68018 0
12.6834 0
12.68698 0
12.69121 0
12.6946 0
12.69831 0
12.70211 0
12.70577 0
12.70969 0
12.71324 0
12.7167 0
12.71973 0
12.72425 0
12.72811 0
12.73124 0
12.73465 0
12.73845 0
12.74273 0
12.74597 0
12.74937 0
12.75289 0
12.75635 0
12.76061 0
12.76444 0
12.76836 0
12.77166 0
12.77569 0
12.78102 0
12.7842 0
12.78705 0
12.79103 0
12.79451 0
12.79818 0
12.80137 0
12.80515 0
12.80939 0
12.81244 0
12.81584 0
12.81923 0
12.82363 0
12.82674 0
12.82978 0
12.83314 0
12.83667 0
12.84084 0
12.84418 0
12.8474 0
12.85152 0
12.85564 0
12.85922 0
12.86255 0
12.86677 0
12.871 0
12.87492 0
12.87814 0
12.88177 0
12.88517 0
12.88921 0
12.89277 0
12.89581 0
12.89919 0
12.90264 0
12.90599 0
12.90967 0
12.913 0
12.91607 0
12.91958 0
12.92295 0
12.92699 0
12.93052 0
12.93433 0
12.93755 0
12.94149 0
12.94474 0
12.94825 0
12.95194 0
12.95546 0
12.95922 0
12.96243 0
12.96607 0
12.96992 0
12.9743 0
12.97867 0
12.98203 0
12.9859 0
12.99012 0
12.99486 0
12.99804 0
13.00208 0
13.0057 0
13.01031 0
13.01344 0
13.01748 0
13.0215 0
13.02722 0
13.03046 0
13.03439 0
13.03789 0
13.04236 0
13.04554 0
13.04967 0
13.05293 0
13.05614 0
13.06067 0
13.06412 0
13.06777 0
13.07149 0
13.07641 0
13.07938 0
13.08279 0
13.08621 0
13.0911 0
13.09428 0
13.10269 0
13.10701 0
13.11023 0
13.11402 0
13.11717 0
13.1212 0
13.12532 0
13.12825 0
13.13202 0
13.13573 0
13.13996 0
13.1433 0
13.14648 0
13.14991 0
13.15428 0
13.15808 0
13.16185 0
13.16515 0
13.16842 0
13.17249 0
13.17695 0
13.18034 0
13.1836 0
13.18786 0
13.19171 0
13.1952 0
13.19861 0
13.20279 0
13.20636 0
13.21139 0
13.21467 0
13.21835 0
13.22149 0
13.22562 0
13.22882 0
13.23183 0
13.23569 0
13.24016 0
13.24488 0
13.24798 0
13.2519 0
13.25505 0
13.26029 0
13.26348 0
13.26738 0
13.27061 0
13.27479 0
13.27793 0
13.28181 0
13.28505 0
13.28824 0
13.2929 0
13.29603 0
13.29953 0
13.30271 0
13.30709 0
13.31029 0
13.31397 0
13.31719 0
13.32042 0
13.32531 0
13.32883 0
13.33177 0
13.33535 0
13.33863 0
13.34302 0
13.34693 0
13.35046 0
13.35448 0
13.35827 0
13.36139 0
13.36513 0
13.36928 0
13.37333 0
13.37765 0
13.38118 0
13.38448 0
13.38803 0
13.39242 0
13.39624 0
13.39968 0
13.40317 0
13.40672 0
13.41042 0
13.41364 0
13.41757 0
13.42088 0
13.42511 0
13.42874 0
13.43191 0
13.43558 0
13.43967 0
13.44354 0
13.44685 0
13.4506 0
13.45379 0
13.45776 0
13.46128 0
13.46502 0
13.46846 0
13.47202 0
13.47609 0
13.47917 0
13.48297 0
13.48637 0
13.49085 0
13.4941 0
13.49719 0
13.50066 0
13.50406 0
13.50827 0
13.51194 0
13.51539 0
13.51825 0
13.5216 0
13.52623 0
13.53002 0
13.53357 0
13.53737 0
13.5416 0
13.54522 0
13.54864 0
13.55181 0
13.55509 0
13.55936 0
13.5626 0
13.56608 0
13.56968 0
13.57378 0
13.5779 0
13.58131 0
13.58493 0
13.58924 0
13.59319 0
13.59646 0
13.60069 0
13.60386 0
13.60836 0
13.61131 0
13.6146 0
13.61843 0
13.62171 0
13.62653 0
13.62975 0
13.63329 0
13.63672 0
13.64037 0
13.64384 0
13.64735 0
13.65074 0
13.65396 0
13.65771 0
13.66109 0
13.66422 0
13.66771 0
13.67125 0
13.67527 0
13.67852 0
13.68185 0
13.68506 0
13.68896 0
13.6932 0
13.69709 0
13.70068 0
13.70381 0
13.7081 0
13.7118 0
13.71542 0
13.71894 0
13.723 0
13.72729 0
13.73062 0
13.73421 0
13.73801 0
13.74226 0
13.74544 0
13.74903 0
13.75244 0
13.75595 0
13.76 0
13.7634 0
13.76697 0
13.77034 0
13.77415 0
13.77791 0
13.78128 0
13.78447 0
13.7882 0
13.79242 0
13.79551 0
13.79929 0
13.80314 0
13.80748 0
13.81075 0
13.81418 0
13.8178 0
13.82134 0
13.82578 0
13.82889 0
13.83248 0
13.83567 0
13.83926 0
13.84334 0
13.84687 0
13.85108 0
13.85491 0
13.85903 0
13.86207 0
13.86583 0
13.86943 0
13.87285 0
13.87655 0
13.87992 0
13.88326 0
13.88643 0
13.89 0
13.89394 0
13.89723 0
13.90086 0
13.90411 0
13.90792 0
13.91178 0
13.91515 0
13.91831 0
13.92186 0
13.93013 0
13.9333 0
13.93683 0
13.94166 0
13.94508 0
13.94872 0
13.95307 0
13.95782 0
13.96208 0
13.96578 0
13.96911 0
13.97284 0
13.9766 0
13.97981 0
13.98351 0
13.98705 0
13.99086 0
13.99467 0
13.99797 0
14.00171 0
14.00518 0
14.00934 0
14.01285 0
14.01639 0
14.02004 0
14.02339 0
14.02717 0
14.03039 0
14.0342 0
14.03748 0
14.04123 0
14.04482 0
14.04823 0
14.0519 0
14.05498 0
14.05956 0
14.06295 0
14.06652 0
14.06956 0
14.07358 0
14.07768 0
14.0813 0
14.0852 0
14.0889 0
14.09361 0
14.09734 0
14.10108 0
14.10474 0
14.10898 0
14.11264 0
14.11577 0
14.11904 0
14.12301 0
14.12719 0
14.13054 0
14.13432 0
14.13789 0
14.14224 0
14.14599 0
14.1497 0
14.15374 0
14.15802 0
14.16187 0
14.1649 0
14.16877 0
14.17216 0
14.17736 0
14.18039 0
14.18392 0
14.18753 0
14.19129 0
14.1947 0
14.19791 0
14.20127 0
14.20455 0
14.20853 0
14.21194 0
14.21515 0
14.21895 0
14.22191 0
14.22679 0
14.23025 0
14.23367 0
14.23722 0
14.24203 0
14.24498 0
14.24815 0
14.25152 0
14.25472 0
14.25853 0
14.26157 0
14.26493 0
14.26843 0
14.27191 0
14.27673 0
14.2802 0
14.28358 0
14.28737 0
14.29172 0
14.29492 0
14.29813 0
14.30136 0
14.30494 0
14.30876 0
14.31165 0
14.3152 0
14.31872 0
14.32203 0
14.32607 0
14.32961 0
14.33312 0
14.33617 0
14.34071 0
14.34445 0
14.34801 0
14.3511 0
14.35443 0
14.35827 0
14.36182 0
14.36501 0
14.36852 0
14.37223 0
14.37591 0
14.37923 0
14.38267 0
14.38575 0
14.38895 0
14.3931 0
14.39616 0
14.39961 0
14.40289 0
14.40625 0
14.41021 0
14.41419 0
14.41781 0
14.4209 0
14.42521 0
14.42848 0
14.4318 0
14.43534 0
14.43829 0
14.44252 0
14.44552 0
14.44892 0
14.45284 0
14.45772 0
14.46175 0
14.46508 0
14.46965 0
14.47341 0
14.47781 0
14.48175 0
14.48564 0
14.48927 0
14.4935 0
14.49694 0
14.50069 0
14.50457 0
14.50854 0
14.51248 0
14.51607 0
14.51992 0
14.52339 0
14.52741 0
14.53052 0
14.53378 0
14.53746 0
14.54102 0
14.54575 0
14.5491 0
14.55328 0
14.55715 0
14.56166 0
14.56478 0
14.56904 0
14.57328 0
14.57765 0
14.58094 0
14.58463 0
14.58802 0
14.59222 0
14.5965 0
14.6005 0
14.60406 0
14.60832 0
14.61211 0
14.61552 0
14.61942 0
14.62273 0
14.62691 0
14.63048 0
14.63454 0
14.63827 0
14.64325 0
14.64659 0
14.65044 0
14.65393 0
14.65734 0
14.66124 0
14.66475 0
14.66809 0
14.67113 0
14.67489 0
14.67836 0
14.68211 0
14.68587 0
14.68929 0
14.69334 0
14.69701 0
14.70056 0
14.70408 0
14.70803 0
14.71217 0
14.71632 0
14.72075 0
14.72526 0
14.7294 0
14.73315 0
14.73685 0
14.74081 0
14.74484 0
14.74802 0
14.75163 0
14.75482 0
14.75962 0
14.76823 0
14.77187 0
14.77623 0
14.77941 0
14.78327 0
14.78664 0
14.79032 0
14.7949 0
14.798 0
14.80169 0
14.80485 0
14.80923 0
14.81259 0
14.81607 0
14.81921 0
14.8226 0
14.82671 0
14.83069 0
14.83419 0
14.83758 0
14.84124 0
14.84473 0
14.84849 0
14.85243 0
14.85549 0
14.85961 0
14.86276 0
14.8666 0
14.87028 0
14.87402 0
14.87783 0
14.88144 0
14.88547 0
14.88884 0
14.89269 0
14.89608 0
14.89978 0
14.90333 0
14.90741 0
14.91107 0
14.91473 0
14.91828 0
14.92209 0
14.92634 0
14.92922 0
14.9325 0
14.9359 0
14.93969 0
14.94385 0
14.94778 0
14.95081 0
14.95447 0
14.95917 0
14.96348 0
14.96676 0
14.97046 0
14.97398 0
14.9782 0
14.98148 0
14.98542 0
14.98883 0
14.99381 0
14.99701 0
15.00052 0
15.00439 0
15.00857 0
15.01253 0
15.01624 0
15.02 0
15.02349 0
15.02779 0
15.03078 0
15.03405 0
15.03724 0
15.04107 0
15.04477 0
15.04821 0
15.05207 0
15.05617 0
15.06042 0
15.06405 0
15.06739 0
15.07047 0
15.07399 0
15.07782 0
15.0814 0
15.0845 0
15.08806 0
15.0926 0
15.09645 0
15.09948 0
15.10297 0
15.10698 0
15.11101 0
15.11397 0
15.11747 0
15.12085 0
15.12445 0
15.12816 0
15.13173 0
15.13521 0
15.13846 0
15.14303 0
15.14604 0
15.14951 0
15.15269 0
15.15588 0
15.15965 0
15.163 0
15.16648 0
15.16973 0
15.17307 0
15.17664 0
15.17994 0
15.18365 0
15.18676 0
15.19034 0
15.19425 0
15.19832 0
15.20154 0
15.20516 0
15.2093 0
15.21225 0
15.21601 0
15.21936 0
15.22257 0
15.22633 0
15.22954 0
15.233 0
15.23677 0
15.24009 0
15.24441 0
15.24854 0
15.2525 0
15.2559 0
15.25993 0
15.26295 0
15.26668 0
15.2703 0
15.27416 0
15.27803 0
15.28125 0
15.28477 0
15.28877 0
15.29315 0
15.29632 0
15.2996 0
15.30281 0
15.30642 0
15.31061 0
15.31416 0
15.31733 0
15.32041 0
15.32399 0
15.32796 0
15.33153 0
15.33557 0
15.33939 0
15.34301 0
15.34607 0
15.35053 0
15.35408 0
15.3577 0
15.36169 0
15.36484 0
15.36887 0
15.37273 0
15.37694 0
15.38005 0
15.38361 0
15.38676 0
15.39044 0
15.39451 0
15.39782 0
15.40143 0
15.40482 0
15.40855 0
15.41176 0
15.415 0
15.41842 0
15.42178 0
15.42687 0
15.43032 0
15.43404 0
15.43744 0
15.44097 0
15.44446 0
15.44771 0
15.45161 0
15.45483 0
15.45888 0
15.46203 0
15.46549 0
15.47 0
15.47504 0
15.47915 0
15.48292 0
15.48708 0
15.49059 0
15.49446 0
15.49751 0
15.50153 0
15.50496 0
15.50856 0
15.51167 0
15.51504 0
15.51849 0
15.52242 0
15.52639 0
15.52978 0
15.53367 0
15.53685 0
15.54068 0
15.54421 0
15.54723 0
15.55063 0
15.55431 0
15.55781 0
15.56137 0
15.56475 0
15.56824 0
15.57155 0
15.57568 0
15.57897 0
15.58259 0
15.58999 0
15.59391 0
15.59715 0
15.60062 0
15.60436 0
15.60906 0
15.61299 0
15.61639 0
15.62023 0
15.62365 0
15.62795 0
15.63142 0
15.6351 0
15.63855 0
15.64243 0
15.64563 0
15.64911 0
15.65293 0
15.6576 0
15.6614 0
15.66451 0
15.66818 0
15.67206 0
15.67641 0
15.67964 0
15.68325 0
15.68659 0
15.69024 0
15.69413 0
15.69774 0
15.70128 0
15.70507 0
15.70899 0
15.71225 0
15.71572 0
15.71912 0
15.72215 0
15.7261 0
15.73006 0
15.73367 0
15.73783 0
15.74173 0
15.7457 0
15.74935 0
15.75287 0
15.7566 0
15.76169 0
15.7646 0
15.76832 0
15.7718 0
15.77607 0
15.77954 0
15.78315 0
15.7865 0
15.7901 0
15.79425 0
15.7977 0
15.80124 0
15.8048 0
15.80874 0
15.81238 0
15.81536 0
15.81875 0
15.82197 0
15.82645 0
15.8297 0
15.83304 0
15.83658 0
15.8403 0
15.84416 0
15.84792 0
15.85202 0
15.85575 0
15.86033 0
15.86404 0
15.86777 0
15.87094 0
15.87491 0
15.87872 0
15.88252 0
15.88607 0
15.8903 0
15.89451 0
15.89805 0
15.90188 0
15.90593 0
15.91023 0
15.91345 0
15.91688 0
15.92032 0
15.92385 0
15.9276 0
15.93167 0
15.93488 0
15.93836 0
15.94264 0
15.94582 0
15.94911 0
15.95273 0
15.95611 0
15.96038 0
15.9637 0
15.96715 0
15.97093 0
15.97454 0
15.9783 0
15.98163 0
15.98537 0
15.98917 0
15.99354 0
15.99674 0
16.00026 0
16.00382 0
16.00773 0
16.01157 0
16.01471 0
16.01797 0
16.02164 0
16.02581 0
16.0295 0
16.033 0
16.03695 0
16.04081 0
16.04472 0
16.04828 0
16.05186 0
16.05567 0
16.05983 0
16.06342 0
16.06681 0
16.07154 0
16.07528 0
16.07876 0
16.08302 0
16.08654 0
16.08997 0
16.09415 0
16.09778 0
16.10115 0
16.10504 0
16.10891 0
16.11271 0
16.11574 0
16.11939 0
16.12285 0
16.12717 0
16.13102 0
16.13475 0
16.13823 0
16.14236 0
16.14631 0
16.14963 0
16.15294 0
16.15625 0
16.16022 0
16.16363 0
16.16744 0
16.1714 0
16.17598 0
16.17955 0
16.18296 0
16.18604 0
16.18926 0
16.19324 0
16.19699 0
16.2007 0
16.20424 0
16.20842 0
16.21211 0
16.21556 0
16.21889 0
16.2222 0
16.22638 0
16.22962 0
16.23352 0
16.23669 0
16.24086 0
16.24513 0
16.24813 0
16.25176 0
16.2553 0
16.26021 0
16.26321 0
16.26695 0
16.27054 0
16.27406 0
16.27777 0
16.28131 0
16.28466 0
16.28766 0
16.29143 0
16.2951 0
16.29836 0
16.30165 0
16.3052 0
16.30895 0
16.31228 0
16.31579 0
16.31927 0
16.32252 0
16.32681 0
16.33006 0
16.3337 0
16.33714 0
16.34019 0
16.34412 0
16.34806 0
16.35134 0
16.35463 0
16.35855 0
16.36193 0
16.36537 0
16.36874 0
16.37244 0
16.37671 0
16.38001 0
16.38314 0
16.38664 0
16.39009 0
16.39378 0
16.39747 0
16.40089 0
16.4044 0
16.40818 0
16.41247 0
16.41995 0
16.42295 0
16.4272 0
16.43016 0
16.43355 0
16.43675 0
16.43999 0
16.4439 0
16.44705 0
16.45089 0
16.45449 0
16.45788 0
16.46174 0
16.46514 0
16.46856 0
16.47213 0
16.47666 0
16.47984 0
16.4833 0
16.4867 0
16.49062 0
16.49523 0
16.4987 0
16.50242 0
16.50605 0
16.51039 0
16.51354 0
16.51748 0
16.54482 0
16.54815 0
16.55236 0
16.55582 0
16.56042 0
16.5635 0
16.56698 0
16.57034 0
16.57357 0
16.57784 0
16.58124 0
16.58442 0
16.58764 0
16.59137 0
16.5949 0
16.59823 0
16.60193 0
16.60521 0
16.60927 0
16.61261 0
16.61611 0
16.61959 0
16.62273 0
16.62759 0
16.63116 0
16.63417 0
16.63752 0
16.64172 0
16.64521 0
16.64899 0
16.65298 0
16.65641 0
16.66061 0
16.6636 0
16.66698 0
16.6705 0
16.67416 0
16.67797 0
16.68141 0
16.68534 0
16.68884 0
16.69298 0
16.69608 0
16.6994 0
16.70295 0
16.70616 0
16.70999 0
16.713 0
16.71659 0
16.72016 0
16.72346 0
16.72714 0
16.73076 0
16.73407 0
16.73817 0
16.74218 0
16.74577 0
16.74929 0
16.7528 0
16.75669 0
16.76112 0
16.76459 0
16.76783 0
16.77138 0
16.77512 0
16.77905 0
16.78214 0
16.78557 0
16.78879 0
16.79277 0
16.79624 0
16.79951 0
16.80285 0
16.80634 0
16.81047 0
16.81358 0
16.81676 0
16.82013 0
16.82428 0
16.82832 0
16.83278 0
16.83591 0
16.83906 0
16.84301 0
16.84594 0
16.84954 0
16.85332 0
16.85632 0
16.8604 0
16.86337 0
16.86663 0
16.87028 0
16.87477 0
16.87865 0
16.88196 0
16.88585 0
16.88926 0
16.89334 0
16.89659 0
16.90037 0
16.90366 0
16.9071 0
16.91112 0
16.91441 0
16.91831 0
16.92198 0
16.92591 0
16.92903 0
16.93257 0
16.93582 0
16.93933 0
16.94344 0
16.94682 0
16.95037 0
16.95359 0
16.9567 0
16.96032 0
16.96381 0
16.96743 0
16.97086 0
16.97455 0
16.97857 0
16.98187 0
16.98538 0
16.98904 0
16.99337 0
16.99622 0
16.9997 0
17.00323 0
17.00665 0
17.01064 0
17.01369 0
17.01773 0
17.02093 0
17.02457 0
17.02872 0
17.03196 0
17.03532 0
17.03882 0
17.04305 0
17.04622 0
17.04949 0
17.05319 0
17.05722 0
17.06119 0
17.06433 0
17.06786 0
17.07195 0
17.07599 0
17.07928 0
17.08281 0
17.08626 0
17.0894 0
17.09387 0
17.09691 0
17.10088 0
17.10439 0
17.10827 0
17.11206 0
17.11522 0
17.11861 0
17.12235 0
17.12646 0
17.12972 0
17.13334 0
17.13662 0
17.13986 0
17.14415 0
17.14794 0
17.15219 0
17.15607 0
17.16033 0
17.16373 0
17.16697 0
17.17029 0
17.17373 0
17.17787 0
17.1813 0
17.18458 0
17.18797 0
17.19133 0
17.19533 0
17.19847 0
17.2027 0
17.20661 0
17.2114 0
17.21452 0
17.21779 0
17.22096 0
17.22444 0
17.22797 0
17.23131 0
17.23476 0
17.23811 0
17.24302 0
17.24598 0
17.24964 0
17.25687 0
17.26044 0
17.26341 0
17.26682 0
17.27015 0
17.2736 0
17.27763 0
17.28074 0
17.2842 0
17.28801 0
17.2923 0
17.29557 0
17.29894 0
17.3022 0
17.30571 0
17.30973 0
17.31319 0
17.31641 0
17.31983 0
17.32336 0
17.32744 0
17.33045 0
17.33392 0
17.33734 0
17.34101 0
17.34534 0
17.34884 0
17.35189 0
17.35516 0
17.3592 0
17.36313 0
17.36697 0
17.37062 0
17.37431 0
17.37844 0
17.38165 0
17.38531 0
17.38862 0
17.39259 0
17.39608 0
17.39969 0
17.40329 0
17.40677 0
17.41119 0
17.41433 0
17.41801 0
17.42105 0
17.42467 0
17.42866 0
17.43212 0
17.43523 0
17.43852 0
17.44226 0
17.44552 0
17.44885 0
17.45218 0
17.45531 0
17.45893 0
17.4626 0
17.46592 0
17.46945 0
17.47329 0
17.47745 0
17.48067 0
17.48384 0
17.48768 0
17.49136 0
17.49577 0
17.49916 0
17.50275 0
17.5068 0
17.51062 0
17.51386 0
17.51742 0
17.52096 0
17.52534 0
17.5288 0
17.53226 0
17.53593 0
17.53959 0
17.54429 0
17.54725 0
17.55046 0
17.55359 0
17.55721 0
17.56128 0
17.56497 0
17.56846 0
17.57246 0
17.5766 0
17.58055 0
17.58401 0
17.58754 0
17.59116 0
17.595 0
17.59809 0
17.60156 0
17.60515 0
17.60916 0
17.61286 0
17.616 0
17.61953 0
17.62303 0
17.6281 0
17.63128 0
17.63486 0
17.63843 0
17.64244 0
17.64614 0
17.64984 0
17.653 0
17.65664 0
17.66105 0
17.66438 0
17.66789 0
17.67153 0
17.67492 0
17.67841 0
17.68138 0
17.68457 0
17.68848 0
17.6925 0
17.69595 0
17.69906 0
17.70256 0
17.70608 0
17.71094 0
17.7147 0
17.71879 0
17.72199 0
17.72672 0
17.73046 0
17.73415 0
17.73789 0
17.74183 0
17.7452 0
17.74864 0
17.75238 0
17.75618 0
17.76043 0
17.76385 0
17.76803 0
17.77206 0
17.7766 0
17.77973 0
17.78329 0
17.78678 0
17.79016 0
17.79464 0
17.79776 0
17.80185 0
17.80517 0
17.8096 0
17.8133 0
17.81664 0
17.82001 0
17.82341 0
17.82836 0
17.83236 0
17.83598 0
17.84013 0
17.84446 0
17.8481 0
17.85228 0
17.85598 0
17.86037 0
17.86343 0
17.86675 0
17.87051 0
17.87362 0
17.87739 0
17.88047 0
17.8838 0
17.88742 0
17.89172 0
17.8959 0
17.89963 0
17.90321 0
17.907 0
17.9107 0
17.91368 0
17.9174 0
17.92103 0
17.92511 0
17.92909 0
17.9327 0
17.93678 0
17.94035 0
17.94452 0
17.94812 0
17.95229 0
17.95576 0
17.95963 0
17.96325 0
17.96666 0
17.97015 0
17.97383 0
17.9777 0
17.98179 0
17.98552 0
17.99012 0
17.99463 0
17.9983 0
18.00191 0
18.00555 0
18.00996 0
18.01342 0
18.01686 0
18.02042 0
18.02333 0
18.02772 0
18.03094 0
18.03482 0
18.03861 0
18.04221 0
18.0458 0
18.04957 0
18.05276 0
18.056 0
18.06024 0
18.06382 0
18.06755 0
18.07109 0
18.0751 0
18.07915 0
18.08695 0
18.0907 0
18.09468 0
18.09769 0
18.10132 0
18.10487 0
18.10821 0
18.11179 0
18.11489 0
18.11816 0
18.12164 0
18.12481 0
18.12873 0
18.13183 0
18.13564 0
18.13919 0
18.14322 0
18.14692 0
18.15046 0
18.15413 0
18.15834 0
18.16185 0
18.16506 0
18.16865 0
18.17179 0
18.17527 0
18.17927 0
18.18251 0
18.18584 0
18.18889 0
18.19299 0
18.19681 0
18.20017 0
18.20366 0
18.20679 0
18.21088 0
18.21413 0
18.21767 0
18.22175 0
18.22511 0
18.22868 0
18.23197 0
18.23542 0
18.23841 0
18.24248 0
18.24627 0
18.24975 0
18.2535 0
18.25675 0
18.26089 0
18.26449 0
18.2679 0
18.27142 0
18.27612 0
18.27963 0
18.28308 0
18.28679 0
18.29037 0
18.29427 0
18.2975 0
18.30117 0
18.30509 0
18.30919 0
18.31302 0
18.31606 0
18.31962 0
18.32294 0
18.32662 0
18.3297 0
18.33299 0
18.33678 0
18.34003 0
18.34405 0
18.34724 0
18.35079 0
18.35437 0
18.35805 0
18.36243 0
18.36679 0
18.3703 0
18.37405 0
18.3791 0
18.38239 0
18.38606 0
18.38961 0
18.39405 0
18.39743 0
18.40103 0
18.40459 0
18.40803 0
18.41197 0
18.41538 0
18.41919 0
18.42261 0
18.42637 0
18.42968 0
18.43349 0
18.43709 0
18.44012 0
18.44458 0
18.44796 0
18.45161 0
18.45517 0
18.45947 0
18.46331 0
18.46652 0
18.46985 0
18.4734 0
18.47824 0
18.48168 0
18.48554 0
18.48922 0
18.49367 0
18.49782 0
18.50203 0
18.50542 0
18.5101 0
18.51372 0
18.51734 0
18.52109 0
18.52457 0
18.52837 0
18.53154 0
18.53517 0
18.53912 0
18.54356 0
18.547 0
18.55036 0
18.55491 0
18.55966 0
18.56286 0
18.56659 0
18.56991 0
18.57334 0
18.57805 0
18.58107 0
18.58513 0
18.58883 0
18.59263 0
18.59637 0
18.59969 0
18.60293 0
18.60635 0
18.61077 0
18.61415 0
18.61742 0
18.62075 0
18.62427 0
18.62791 0
18.63108 0
18.63455 0
18.63815 0
18.64162 0
18.64559 0
18.64935 0
18.65345 0
18.65681 0
18.66117 0
18.66437 0
18.6678 0
18.6713 0
18.67478 0
18.67867 0
18.68173 0
18.68567 0
18.68954 0
18.6932 0
18.69622 0
18.69988 0
18.70357 0
18.70764 0
18.71176 0
18.71551 0
18.71862 0
18.72236 0
18.72602 0
18.72971 0
18.73305 0
18.73654 0
18.74025 0
18.74438 0
18.74732 0
18.75066 0
18.75415 0
18.75746 0
18.76106 0
18.76411 0
18.76773 0
18.77122 0
18.77464 0
18.77859 0
18.78205 0
18.78574 0
18.78983 0
18.79458 0
18.79783 0
18.80123 0
18.80475 0
18.8096 0
18.81395 0
18.81764 0
18.82149 0
18.82523 0
18.82906 0
18.83252 0
18.83603 0
18.83982 0
18.84366 0
18.84737 0
18.85215 0
18.85533 0
18.85943 0
18.86308 0
18.86654 0
18.87013 0
18.87373 0
18.87853 0
18.88191 0
18.88518 0
18.88878 0
18.89282 0
18.89704 0
18.90088 0
18.90471 0
18.90847 0
18.91719 0
18.92 0
18.92354 0
18.92775 0
18.93093 0
18.93422 0
18.93773 0
18.94199 0
18.94569 0
18.94896 0
18.95257 0
18.95584 0
18.96016 0
18.96428 0
18.9677 0
18.97098 0
18.97477 0
18.97918 0
18.98235 0
18.98574 0
18.98943 0
18.99432 0
18.99746 0
19.00104 0
19.00454 0
19.00928 0
19.01321 0
19.01642 0
19.01987 0
19.02296 0
19.02686 0
19.03036 0
19.03416 0
19.0372 0
19.0408 0
19.04491 0
19.0491 0
19.05233 0
19.05617 0
19.06013 0
19.06376 0
19.06719 0
19.07059 0
19.0744 0
19.07823 0
19.08188 0
19.08541 0
19.08889 0
19.09272 0
19.09641 0
19.0999 0
19.10338 0
19.1066 0
19.11085 0
19.11407 0
19.11719 0
19.12079 0
19.12463 0
19.12864 0
19.13149 0
19.13465 0
19.13821 0
19.14176 0
19.14611 0
19.15029 0
19.15395 0
19.15722 0
19.16146 0
19.16466 0
19.16789 0
19.17144 0
19.17545 0
19.17905 0
19.18258 0
19.18618 0
19.19002 0
19.19455 0
19.19817 0
19.2027 0
19.20605 0
19.20991 0
19.21319 0
19.21701 0
19.22031 0
19.22377 0
19.22824 0
19.23134 0
19.23467 0
19.23777 0
19.24247 0
19.24616 0
19.25043 0
19.25421 0
19.25809 0
19.26207 0
19.26505 0
19.26866 0
19.27193 0
19.27535 0
19.27944 0
19.28308 0
19.2871 0
19.29107 0
19.29509 0
19.29853 0
19.3019 0
19.30518 0
19.30839 0
19.31255 0
19.31636 0
19.31953 0
19.32279 0
19.32644 0
19.32991 0
19.33335 0
19.33735 0
19.34097 0
19.34516 0
19.34829 0
19.35197 0
19.35538 0
19.35903 0
19.36264 0
19.36616 0
19.36989 0
19.37347 0
19.37795 0
19.38148 0
19.38552 0
19.38855 0
19.39309 0
19.39669 0
19.39999 0
19.40343 0
19.40674 0
19.41079 0
19.41444 0
19.4183 0
19.42177 0
19.42545 0
19.42909 0
19.43213 0
19.43544 0
19.43855 0
19.44256 0
19.44626 0
19.44957 0
19.4531 0
19.45646 0
19.46009 0
19.46346 0
19.46757 0
19.47198 0
19.47648 0
19.4799 0
19.48381 0
19.48723 0
19.49108 0
19.49533 0
19.49923 0
19.50244 0
19.50564 0
19.50906 0
19.5128 0
19.51629 0
19.51968 0
19.5238 0
19.52786 0
19.53133 0
19.53438 0
19.53785 0
19.54142 0
19.54515 0
19.54816 0
19.55174 0
19.55506 0
19.55868 0
19.56326 0
19.56702 0
19.57121 0
19.57439 0
19.57898 0
19.58251 0
19.58619 0
19.5899 0
19.59406 0
19.5973 0
19.60068 0
19.60459 0
19.60907 0
19.61273 0
19.61606 0
19.62004 0
19.6234 0
19.62742 0
19.63088 0
19.63441 0
19.63799 0
19.6419 0
19.64552 0
19.64895 0
19.65269 0
19.65697 0
19.6612 0
19.66465 0
19.66831 0
19.67172 0
19.67513 0
19.67861 0
19.68167 0
19.6853 0
19.68861 0
19.69306 0
19.69717 0
19.70104 0
19.70485 0
19.70845 0
19.71278 0
19.71639 0
19.71994 0
19.72307 0
19.72693 0
19.73045 0
19.73415 0
19.73769 0
19.74648 0
19.74942 0
19.75298 0
19.75686 0
19.76197 0
19.76493 0
19.76824 0
19.77167 0
19.77498 0
19.77859 0
19.78221 0
19.78575 0
19.78953 0
19.79422 0
19.79847 0
19.80244 0
19.806 0
19.81114 0
19.81467 0
19.81821 0
19.82134 0
19.82453 0
19.82847 0
19.83193 0
19.83528 0
19.83894 0
19.84219 0
19.84635 0
19.84988 0
19.85387 0
19.85713 0
19.86158 0
19.86466 0
19.86836 0
19.87183 0
19.8752 0
19.87952 0
19.88271 0
19.88614 0
19.88988 0
19.89387 0
19.89746 0
19.90127 0
19.90526 0
19.90879 0
19.91258 0
19.91568 0
19.91922 0
19.92317 0
19.92782 0
19.93086 0
19.93403 0
19.93781 0
19.9416 0
19.94616 0
19.94971 0
19.95313 0
19.95708 0
19.96161 0
19.96484 0
19.96835 0
19.97191 0
19.97569 0
19.97998 0
19.98431 0
19.9881 0
19.99244 0
19.99665 0
20.00027 0
20.00386 0
20.00745 0
20.01155 0
20.01525 0
20.01861 0
20.02172 0
20.02568 0
20.02945 0
20.03321 0
20.03624 0
20.03959 0
20.04352 0
20.04666 0
20.05013 0
20.05392 0
20.05752 0
20.06159 0
20.06453 0
20.0682 0
20.07209 0
20.07654 0
20.08054 0
20.08404 0
20.08761 0
20.09076 0
20.09495 0
20.0989 0
20.10196 0
20.10577 0
20.1098 0
20.11357 0
20.11739 0
20.12057 0
20.12423 0
20.12861 0
20.13227 0
20.13541 0
20.13918 0
20.14289 0
20.14709 0
20.15048 0
20.15419 0
20.15826 0
20.16211 0
20.16615 0
20.16924 0
20.17292 0
20.17661 0
20.1801 0
20.18388 0
20.18718 0
20.19084 0
20.19556 0
20.1985 0
20.20219 0
20.20596 0
20.20972 0
20.21348 0
20.21675 0
20.22026 0
20.22371 0
20.22809 0
20.23123 0
20.23479 0
20.2384 0
20.24215 0
20.24558 0
20.24864 0
20.25196 0
20.2557 0
20.25945 0
20.26379 0
20.26775 0
20.27161 0
20.27579 0
20.27949 0
20.28293 0
20.28631 0
20.28934 0
20.29367 0
20.29769 0
20.30173 0
20.30577 0
20.30977 0
20.31363 0
20.3168 0
20.32015 0
20.32395 0
20.32789 0
20.33146 0
20.33549 0
20.33915 0
20.34353 0
20.34719 0
20.35087 0
20.35416 0
20.35786 0
20.36204 0
20.36523 0
20.36881 0
20.37186 0
20.37541 0
20.37938 0
20.38257 0
20.38647 0
20.39027 0
20.39452 0
20.39786 0
20.4019 0
20.40573 0
20.40943 0
20.41298 0
20.41627 0
20.41977 0
20.42333 0
20.42708 0
20.43056 0
20.43386 0
20.43729 0
20.44041 0
20.4447 0
20.44809 0
20.45149 0
20.45483 0
20.45853 0
20.46205 0
20.46526 0
20.46929 0
20.47305 0
20.4769 0
20.48065 0
20.48407 0
20.48737 0
20.49083 0
20.49581 0
20.49959 0
20.50379 0
20.50695 0
20.51077 0
20.51393 0
20.51746 0
20.52191 0
20.52542 0
20.5297 0
20.53321 0
20.53675 0
20.53997 0
20.54386 0
20.54725 0
20.55076 0
20.55398 0
20.55719 0
20.56162 0
20.56468 0
20.56871 0
20.57223 0
20.58013 0
20.58339 0
20.58668 0
20.58987 0
20.59381 0
20.59703 0
20.60011 0
20.60352 0
20.60674 0
20.61053 0
20.61393 0
20.61773 0
20.62128 0
20.62461 0
20.6284 0
20.63161 0
20.63534 0
20.63917 0
20.64342 0
20.64685 0
20.65045 0
20.65412 0
20.6572 0
20.66174 0
20.66534 0
20.66868 0
20.67184 0
20.67515 0
20.67928 0
20.68286 0
20.68678 0
20.69022 0
20.69457 0
20.69797 0
20.70132 0
20.70498 0
20.70866 0
20.71283 0
20.7158 0
20.71919 0
20.72233 0
20.72633 0
20.73029 0
20.73354 0
20.73734 0
20.74079 0
20.74553 0
20.74854 0
20.75207 0
20.75541 0
20.7594 0
20.76312 0
20.76626 0
20.76999 0
20.77378 0
20.77827 0
20.78124 0
20.78473 0
20.78815 0
20.79136 0
20.79542 0
20.79871 0
20.80229 0
20.80548 0
20.80981 0
20.81368 0
20.81704 0
20.82056 0
20.82416 0
20.82862 0
20.8318 0
20.83621 0
20.83971 0
20.84438 0
20.84757 0
20.85197 0
20.85534 0
20.85975 0
20.86362 0
20.86763 0
20.87155 0
20.87542 0
20.87908 0
20.8831 0
20.88638 0
20.88991 0
20.89363 0
20.89715 0
20.90041 0
20.9035 0
20.90729 0
20.91191 0
20.91576 0
20.91907 0
20.92211 0
20.92564 0
20.93023 0
20.9338 0
20.93743 0
20.94106 0
20.94578 0
20.94934 0
20.95353 0
20.95713 0
20.96156 0
20.96488 0
20.96836 0
20.97242 0
20.97565 0
20.97971 0
20.98301 0
20.987 0
20.99016 0
20.99452 0
20.99802 0
21.00203 0
21.00591 0
21.01057 0
21.01402 0
21.01748 0
21.02121 0
21.02529 0
21.0293 0
21.03257 0
21.03626 0
21.03948 0
21.04308 0
21.04689 0
21.0518 0
21.05523 0
21.05932 0
21.06373 0
21.06746 0
21.07101 0
21.07446 0
21.07855 0
21.08206 0
21.08543 0
21.08917 0
21.09314 0
21.09715 0
21.10079 0
21.10424 0
21.10784 0
21.11192 0
21.11531 0
21.11897 0
21.12222 0
21.12589 0
21.12995 0
21.13315 0
21.13639 0
21.14029 0
21.14455 0
21.14824 0
21.15163 0
21.15583 0
21.15951 0
21.16336 0
21.1663 0
21.17012 0
21.17341 0
21.17787 0
21.18104 0
21.18456 0
21.18833 0
21.19178 0
21.19608 0
21.19953 0
21.20311 0
21.2063 0
21.21029 0
21.21366 0
21.21678 0
21.22036 0
21.22396 0
21.22973 0
21.23293 0
21.23608 0
21.24021 0
21.24426 0
21.24762 0
21.2511 0
21.25501 0
21.25871 0
21.26236 0
21.26547 0
21.26873 0
21.27201 0
21.27613 0
21.27974 0
21.28279 0
21.28618 0
21.28974 0
21.29382 0
21.29731 0
21.30046 0
21.30374 0
21.30725 0
21.31102 0
21.31468 0
21.31784 0
21.32177 0
21.32534 0
21.32947 0
21.33269 0
21.33616 0
21.33999 0
21.34334 0
21.34721 0
21.35088 0
21.35458 0
21.35777 0
21.36195 0
21.36498 0
21.36851 0
21.37222 0
21.37593 0
21.38035 0
21.38379 0
21.38724 0
21.39067 0
21.39535 0
21.39866 0
21.40263 0
21.41088 0
21.41429 0
21.41784 0
21.42125 0
21.42435 0
21.42896 0
21.4321 0
21.43573 0
21.43896 0
21.44272 0
21.44695 0
21.45029 0
21.45359 0
21.45811 0
21.46211 0
21.46582 0
21.46929 0
21.47307 0
21.4774 0
21.48106 0
21.48448 0
21.48778 0
21.49192 0
21.49579 0
21.49965 0
21.50303 0
21.50696 0
21.5114 0
21.51469 0
21.51798 0
21.52201 0
21.52561 0
21.52934 0
21.53271 0
21.53689 0
21.54035 0
21.5442 0
21.54856 0
21.55192 0
21.5553 0
21.5587 0
21.56295 0
21.56664 0
21.57017 0
21.57377 0
21.57825 0
21.5814 0
21.58498 0
21.58854 0
21.59208 0
21.59609 0
21.59962 0
21.60324 0
21.60702 0
21.61121 0
21.61459 0
21.6182 0
21.62156 0
21.62559 0
21.6296 0
21.63364 0
21.63691 0
21.64002 0
21.64461 0
21.64772 0
21.65152 0
21.65492 0
21.65897 0
21.663 0
21.66666 0
21.66998 0
21.67398 0
21.67781 0
21.68159 0
21.68501 0
21.68828 0
21.69271 0
21.69727 0
21.70063 0
21.70416 0
21.70836 0
21.71285 0
21.71606 0
21.71962 0
21.723 0
21.72637 0
21.73035 0
21.73353 0
21.73693 0
21.74035 0
21.74438 0
21.74816 0
21.75208 0
21.75556 0
21.75881 0
21.76235 0
21.76573 0
21.76927 0
21.77289 0
21.77636 0
21.78021 0
21.7838 0
21.78758 0
21.79158 0
21.79579 0
21.79965 0
21.80308 0
21.80649 0
21.80973 0
21.81339 0
21.8166 0
21.82024 0
21.82378 0
21.82838 0
21.83179 0
21.83551 0
21.83903 0
21.84234 0
21.8466 0
21.84992 0
21.8542 0
21.85748 0
21.86177 0
21.86474 0
21.868 0
21.87147 0
21.87502 0
21.87895 0
21.88214 0
21.88624 0
21.89002 0
21.89381 0
21.89808 0
21.90125 0
21.90461 0
21.90819 0
21.91202 0
21.91531 0
21.9185 0
21.9223 0
21.92574 0
21.93021 0
21.93323 0
21.93645 0
21.94003 0
21.94329 0
21.94765 0
21.95119 0
21.95513 0
21.95833 0
21.96284 0
21.96595 0
21.97005 0
21.97427 0
21.97845 0
21.98164 0
21.98517 0
21.98853 0
21.99215 0
21.99595 0
21.99944 0
22.00324 0
22.00641 0
22.01009 0
22.01384 0
22.0176 0
22.02122 0
22.0248 0
22.02914 0
22.03254 0
22.0369 0
22.03998 0
22.04333 0
22.04706 0
22.0505 0
22.05383 0
22.05761 0
22.06212 0
22.06585 0
22.06915 0
22.07265 0
22.07638 0
22.07993 0
22.08312 0
22.08683 0
22.09023 0
22.0939 0
22.09709 0
22.10045 0
22.10407 0
22.10755 0
22.11197 0
22.11504 0
22.11858 0
22.1224 0
22.12678 0
22.13043 0
22.13368 0
22.13739 0
22.14063 0
22.14428 0
22.1474 0
22.15095 0
22.15435 0
22.15764 0
22.16207 0
22.16505 0
22.16845 0
22.17153 0
22.17492 0
22.17912 0
22.18224 0
22.18588 0
22.18916 0
22.19333 0
22.1967 0
22.19984 0
22.20377 0
22.20725 0
22.21141 0
22.2149 0
22.21898 0
22.22241 0
22.22602 0
22.22987 0
22.23748 0
22.24118 0
22.2453 0
22.24852 0
22.25244 0
22.25568 0
22.25972 0
22.26351 0
22.26686 0
22.27012 0
22.27357 0
22.27739 0
22.28091 0
22.28411 0
22.2871 0
22.29095 0
22.29486 0
22.29948 0
22.30299 0
22.30717 0
22.31129 0
22.31498 0
22.31806 0
22.32214 0
22.32543 0
22.33028 0
22.33341 0
22.33642 0
22.34028 0
22.34455 0
22.34865 0
22.35195 0
22.35618 0
22.36053 0
22.36452 0
22.3679 0
22.37173 0
22.37488 0
22.37937 0
22.3825 0
22.38626 0
22.38983 0
22.39399 0
22.39779 0
22.40197 0
22.40552 0
22.40988 0
22.41372 0
22.41773 0
22.42101 0
22.42439 0
22.42893 0
22.4321 0
22.43551 0
22.43949 0
22.44424 0
22.44736 0
22.45086 0
22.45422 0
22.45836 0
22.46271 0
22.4661 0
22.47007 0
22.47366 0
22.47744 0
22.48121 0
22.48458 0
22.48781 0
22.49153 0
22.49576 0
22.49879 0
22.50238 0
22.50592 0
22.51083 0
22.51513 0
22.51905 0
22.52286 0
22.527 0
22.53129 0
22.53489 0
22.53894 0
22.5435 0
22.54748 0
22.55055 0
22.55404 0
22.55735 0
22.56141 0
22.56518 0
22.56889 0
22.57229 0
22.57582 0
22.57988 0
22.58285 0
22.58669 0
22.59006 0
22.5935 0
22.59715 0
22.60072 0
22.60456 0
22.60777 0
22.6118 0
22.61505 0
22.6189 0
22.62199 0
22.62576 0
22.62976 0
22.63322 0
22.63697 0
22.64089 0
22.6447 0
22.64856 0
22.65234 0
22.65596 0
22.66036 0
22.66368 0
22.66725 0
22.67102 0
22.67418 0
22.6786 0
22.68208 0
22.68578 0
22.68878 0
22.69205 0
22.696 0
22.6993 0
22.70275 0
22.70627 0
22.71066 0
22.71388 0
22.71762 0
22.72122 0
22.72468 0
22.72934 0
22.73231 0
22.73599 0
22.73982 0
22.74342 0
22.74734 0
22.75114 0
22.75552 0
22.75888 0
22.76312 0
22.76653 0
22.77055 0
22.77397 0
22.77859 0
22.78166 0
22.78526 0
22.78945 0
22.79386 0
22.79701 0
22.79995 0
22.80338 0
22.8071 0
22.81088 0
22.81449 0
22.81818 0
22.82153 0
22.82484 0
22.82942 0
22.83328 0
22.83659 0
22.84028 0
22.84421 0
22.84781 0
22.85164 0
22.85547 0
22.85904 0
22.86349 0
22.86719 0
22.87114 0
22.87464 0
22.87887 0
22.88265 0
22.88673 0
22.8902 0
22.89374 0
22.89808 0
22.90169 0
22.90556 0
22.90908 0
22.91298 0
22.91621 0
22.91985 0
22.92298 0
22.92669 0
22.93091 0
22.93404 0
22.93748 0
22.94144 0
22.94598 0
22.94895 0
22.95227 0
22.95544 0
22.95858 0
22.96255 0
22.96553 0
22.9692 0
22.97256 0
22.97605 0
22.97997 0
22.98365 0
22.98716 0
22.9907 0
22.99447 0
22.99781 0
23.00154 0
23.005 0
23.00844 0
23.01266 0
23.01624 0
23.02012 0
23.02309 0
23.0267 0
23.03059 0
23.03389 0
23.03702 0
23.04044 0
23.04446 0
23.04789 0
23.0513 0
23.05511 0
23.05896 0
23.06232 0
23.0659 0
23.07342 0
23.07705 0
23.08138 0
23.08488 0
23.08861 0
23.09201 0
23.09594 0
23.09889 0
23.10208 0
23.1052 0
23.1083 0
23.1127 0
23.11569 0
23.11899 0
23.12253 0
23.12598 0
23.12997 0
23.13364 0
23.13728 0
23.14078 0
23.1444 0
23.14772 0
23.15139 0
23.15495 0
23.15857 0
23.16303 0
23.16688 0
23.17018 0
23.17391 0
23.17844 0
23.1818 0
23.18534 0
23.1889 0
23.1921 0
23.19607 0
23.19916 0
23.20262 0
23.20608 0
23.20954 0
23.21319 0
23.2168 0
23.22024 0
23.22394 0
23.2283 0
23.23218 0
23.23546 0
23.23883 0
23.24221 0
23.24588 0
23.24949 0
23.2534 0
23.25663 0
23.26071 0
23.2646 0
23.2677 0
23.27159 0
23.27533 0
23.27971 0
23.28269 0
23.28594 0
23.28902 0
23.29237 0
23.29627 0
23.30013 0
23.30356 0
23.30725 0
23.31158 0
23.31563 0
23.31873 0
23.32243 0
23.32583 0
23.33015 0
23.33337 0
23.33673 0
23.34006 0
23.34346 0
23.34759 0
23.35109 0
23.35469 0
23.35806 0
23.36251 0
23.36659 0
23.37014 0
23.37354 0
23.37666 0
23.3803 0
23.38364 0
23.3872 0
23.39071 0
23.3947 0
23.39845 0
23.40247 0
23.40593 0
23.40915 0
23.41368 0
23.41713 0
23.42076 0
23.42381 0
23.42782 0
23.43137 0
23.43485 0
23.43859 0
23.44198 0
23.44647 0
23.44981 0
23.45298 0
23.45664 0
23.46022 0
23.4643 0
23.46784 0
23.47126 0
23.47444 0
23.47846 0
23.48222 0
23.48579 0
23.48941 0
23.49415 0
23.49799 0
23.50144 0
23.50553 0
23.50939 0
23.5134 0
23.5173 0
23.52052 0
23.52374 0
23.52721 0
23.53105 0
23.53426 0
23.53828 0
23.54171 0
23.54619 0
23.54957 0
23.55331 0
23.55713 0
23.56097 0
23.56433 0
23.56754 0
23.57067 0
23.57409 0
23.57822 0
23.58148 0
23.58452 0
23.58794 0
23.59192 0
23.59641 0
23.59982 0
23.60351 0
23.60669 0
23.60992 0
23.61362 0
23.61674 0
23.62008 0
23.62333 0
23.62764 0
23.63188 0
23.63523 0
23.63878 0
23.64268 0
23.64656 0
23.65016 0
23.65413 0
23.65754 0
23.66182 0
23.66582 0
23.66947 0
23.67329 0
23.67678 0
23.68155 0
23.68534 0
23.68896 0
23.69234 0
23.69639 0
23.70018 0
23.70346 0
23.7068 0
23.7105 0
23.71415 0
23.71713 0
23.72037 0
23.72395 0
23.72869 0
23.73266 0
23.73657 0
23.7403 0
23.74401 0
23.74809 0
23.75124 0
23.75443 0
23.75776 0
23.76146 0
23.76467 0
23.76787 0
23.77147 0
23.77487 0
23.7792 0
23.78231 0
23.78611 0
23.78951 0
23.7932 0
23.79693 0
23.8002 0
23.80377 0
23.80706 0
23.81095 0
23.81482 0
23.81823 0
23.82157 0
23.82531 0
23.82966 0
23.83292 0
23.83682 0
23.84019 0
23.84369 0
23.84725 0
23.8514 0
23.85539 0
23.85852 0
23.86253 0
23.8659 0
23.86931 0
23.87312 0
23.87688 0
23.88107 0
23.88461 0
23.88847 0
23.89814 0
23.90147 0
23.9048 0
23.90784 0
23.91182 0
23.91527 0
23.91859 0
23.92235 0
23.92583 0
23.93006 0
23.93324 0
23.93674 0
23.94025 0
23.94409 0
23.94798 0
23.95175 0
23.95501 0
23.95904 0
23.96329 0
23.9665 0
23.96982 0
23.97335 0
23.97683 0
23.98069 0
23.98421 0
23.98824 0
23.992 0
23.99722 0
24.00194 0
24.00574 0
24.00956 0
24.01442 0
24.01858 0
24.02309 0
24.02822 0
24.03408 0
24.0378 0
24.04158 0
24.04586 0
24.0498 0
24.05444 0
24.05811 0
24.06293 0
24.06728 0
24.07106 0
24.07537 0
24.07968 0
24.08323 0
24.08697 0
24.09053 0
24.09433 0
24.09859 0
24.10228 0
24.106 0
24.10966 0
24.11409 0
24.11778 0
24.12094 0
24.12427 0
24.12803 0
24.13252 0
24.13549 0
24.13893 0
24.14221 0
24.14626 0
24.15017 0
24.15405 0
24.1571 0
24.16065 0
24.16505 0
24.16848 0
24.17177 0
24.17505 0
24.17894 0
24.18289 0
24.18672 0
24.19047 0
24.19427 0
24.19878 0
24.20228 0
24.20552 0
24.20917 0
24.21345 0
24.21696 0
24.22014 0
24.22404 0
24.22738 0
24.2316 0
24.23516 0
24.23879 0
24.24254 0
24.24654 0
24.25048 0
24.25392 0
24.25789 0
24.26304 0
24.26733 0
24.27112 0
24.2755 0
24.28207 0
24.28673 0
24.29111 0
24.29715 0
24.30223 0
24.30643 0
24.31023 0
24.31452 0
24.31859 0
24.32304 0
24.32687 0
24.33147 0
24.33678 0
24.34117 0
24.34601 0
24.3504 0
24.35396 0
24.35816 0
24.3631 0
24.36836 0
24.37276 0
24.37741 0
24.38288 0
24.38686 0
24.39093 0
24.39516 0
24.40041 0
24.40438 0
24.4089 0
24.41356 0
24.41848 0
24.42227 0
24.42704 0
24.43153 0
24.43653 0
24.44076 0
24.44549 0
24.45078 0
24.45513 0
24.45979 0
24.46556 0
24.46971 0
24.47351 0
24.47741 0
24.48225 0
24.48614 0
24.49041 0
24.49454 0
24.49918 0
24.50273 0
24.50624 0
24.50998 0
24.51533 0
24.51898 0
24.52263 0
24.52631 0
24.53126 0
24.53535 0
24.53941 0
24.54268 0
24.54689 0
24.5507 0
24.55427 0
24.55773 0
24.5616 0
24.56674 0
24.57078 0
24.57455 0
24.57826 0
24.58303 0
24.58671 0
24.59064 0
24.59453 0
24.59946 0
24.60304 0
24.60671 0
24.6111 0
24.61588 0
24.61935 0
24.62288 0
24.62647 0
24.6307 0
24.63437 0
24.63799 0
24.64168 0
24.64585 0
24.65003 0
24.65376 0
24.65766 0
24.6614 0
24.66612 0
24.67013 0
24.6735 0
24.67717 0
24.68118 0
24.68505 0
24.68839 0
24.69202 0
24.69655 0
24.7007 0
24.70437 0
24.7084 0
24.71269 0
24.71701 0
24.72057 0
24.72409 0
24.72794 0
24.73278 0
24.73652 0
24.74003 0
24.74368 0
24.74818 0
24.75201 0
24.75584 0
24.75992 0
24.76426 0
24.76809 0
24.77172 0
24.77519 0
24.78012 0
24.78397 0
24.78744 0
24.79102 0
24.79554 0
24.80062 0
24.8041 0
24.81333 0
24.81706 0
24.82086 0
24.82414 0
24.82762 0
24.83187 0
24.83555 0
24.83912 0
24.84284 0
24.84762 0
24.85276 0
24.85748 0
24.86116 0
24.86572 0
24.86957 0
24.8733 0
24.87729 0
24.88242 0
24.88629 0
24.89025 0
24.894 0
24.89819 0
24.90214 0
24.90596 0
24.90953 0
24.91363 0
24.91801 0
24.92194 0
24.92526 0
24.93045 0
24.93419 0
24.93824 0
24.94225 0
24.94618 0
24.95049 0
24.95402 0
24.95735 0
24.96107 0
24.96584 0
24.96944 0
24.97297 0
24.97668 0
24.98092 0
24.985 0
24.98862 0
24.99206 0
24.9964 0
25.00033 0
25.00393 0
25.0075 0
25.01137 0
25.01587 0
25.01955 0
25.02292 0
25.02671 0
25.0319 0
25.0358 0
25.03928 0
25.04287 0
25.04711 0
25.05131 0
25.05472 0
25.05881 0
25.06247 0
25.06704 0
25.0709 0
25.07448 0
25.07826 0
25.08327 0
25.08694 0
25.09042 0
25.09418 0
25.09926 0
25.1028 0
25.1063 0
25.10979 0
25.11448 0
25.11837 0
25.12196 0
25.12633 0
25.1313 0
25.13482 0
25.13824 0
25.14157 0
25.14531 0
25.15022 0
25.15364 0
25.15699 0
25.16064 0
25.16545 0
25.16905 0
25.17255 0
25.17593 0
25.1803 0
25.18404 0
25.18744 0
25.19104 0
25.19625 0
25.20049 0
25.20384 0
25.20756 0
25.21255 0
25.21718 0
25.22045 0
25.22415 0
25.22766 0
25.23212 0
25.23578 0
25.23926 0
25.24267 0
25.24682 0
25.25092 0
25.25447 0
25.25806 0
25.26256 0
25.26644 0
25.27001 0
25.27386 0
25.27748 0
25.28144 0
25.28533 0
25.28904 0
25.29247 0
25.29641 0
25.30054 0
25.30421 0
25.30761 0
25.311 0
25.31615 0
25.31974 0
25.32316 0
25.32674 0
25.33143 0
25.33539 0
25.33884 0
25.34228 0
25.34684 0
25.35085 0
25.35446 0
25.35796 0
25.36186 0
25.3667 0
25.3702 0
25.3736 0
25.37723 0
25.38162 0
25.38557 0
25.38922 0
25.39348 0
25.39816 0
25.40211 0
25.40573 0
25.40914 0
25.41315 0
25.41703 0
25.42048 0
25.42385 0
25.42734 0
25.43186 0
25.43542 0
25.43891 0
25.44258 0
25.44717 0
25.45138 0
25.4548 0
25.45819 0
25.46181 0
25.46626 0
25.46995 0
25.47359 0
25.4773 0
25.48147 0
25.48522 0
25.48871 0
25.49224 0
25.49624 0
25.50091 0
25.50472 0
25.50793 0
25.51161 0
25.51626 0
25.51975 0
25.52355 0
25.52724 0
25.53166 0
25.53546 0
25.53918 0
25.54251 0
25.54637 0
25.55095 0
25.55464 0
25.55807 0
25.56167 0
25.5659 0
25.56988 0
25.57384 0
25.57838 0
25.58382 0
25.58734 0
25.59077 0
25.59431 0
25.59828 0
25.60236 0
25.60584 0
25.6097 0
25.61502 0
25.61866 0
25.62251 0
25.62642 0
25.63104 0
25.63574 0
25.63958 0
25.64334 0
25.64877 0
25.65302 0
25.65681 0
25.66104 0
25.66626 0
25.67095 0
25.67484 0
25.67908 0
25.68517 0
25.68904 0
25.69294 0
25.69867 0
25.70675 0
25.71041 0
25.71545 0
25.71984 0
25.72395 0
25.7278 0
25.7324 0
25.73664 0
25.74077 0
25.74524 0
25.75047 0
25.75454 0
25.75882 0
25.76391 0
25.76829 0
25.77198 0
25.77573 0
25.78083 0
25.78479 0
25.78852 0
25.79276 0
25.7979 0
25.80284 0
25.80676 0
25.81068 0
25.81597 0
25.82072 0
25.8252 0
25.82953 0
25.83457 0
25.83847 0
25.84216 0
25.84604 0
25.85118 0
25.85688 0
25.86171 0
25.86672 0
25.87074 0
25.87491 0
25.87878 0
25.88445 0
25.8882 0
25.89235 0
25.89835 0
25.90261 0
25.90645 0
25.9103 0
25.91583 0
25.92031 0
25.92421 0
25.92863 0
25.93386 0
25.93791 0
25.94209 0
25.94702 0
25.95209 0
25.95576 0
25.95968 0
25.96548 0
25.96933 0
25.97289 0
25.97714 0
25.98154 0
25.98544 0
25.98923 0
25.99286 0
25.99735 0
26.00233 0
26.00649 0
26.01043 0
26.01515 0
26.01953 0
26.0234 0
26.0278 0
26.03246 0
26.03646 0
26.04078 0
26.04477 0
26.04956 0
26.05379 0
26.05766 0
26.06168 0
26.06752 0
26.07219 0
26.07638 0
26.08138 0
26.0853 0
26.08938 0
26.09285 0
26.09779 0
26.10143 0
26.10495 0
26.10847 0
26.11219 0
26.116 0
26.11942 0
26.12296 0
26.12664 0
26.13166 0
26.13504 0
26.13897 0
26.14246 0
26.14679 0
26.15026 0
26.15401 0
26.15744 0
26.16224 0
26.16574 0
26.16943 0
26.17279 0
26.17632 0
26.18106 0
26.18496 0
26.1886 0
26.19203 0
26.19662 0
26.20005 0
26.2038 0
26.20726 0
26.21174 0
26.21529 0
26.2189 0
26.22279 0
26.22677 0
26.23125 0
26.23489 0
26.23855 0
26.24267 0
26.2468 0
26.25058 0
26.25405 0
26.25769 0
26.26138 0
26.2656 0
26.26916 0
26.27297 0
26.27657 0
26.28122 0
26.2845 0
26.28781 0
26.29175 0
26.29575 0
26.30007 0
26.30345 0
26.30713 0
26.31074 0
26.3153 0
26.3186 0
26.3225 0
26.32583 0
26.33056 0
26.33397 0
26.3378 0
26.34118 0
26.34552 0
26.34906 0
26.3525 0
26.35625 0
26.35976 0
26.36467 0
26.36812 0
26.37221 0
26.37555 0
26.37951 0
26.38294 0
26.38614 0
26.38969 0
26.39341 0
26.39783 0
26.40128 0
26.40479 0
26.40823 0
26.41182 0
26.41578 0
26.41962 0
26.423 0
26.42665 0
26.43112 0
26.43477 0
26.43819 0
26.4419 0
26.44628 0
26.45052 0
26.45393 0
26.45767 0
26.46188 0
26.46652 0
26.46997 0
26.474 0
26.47761 0
26.482 0
26.48542 0
26.48926 0
26.49263 0
26.49716 0
26.5007 0
26.5042 0
26.50793 0
26.51153 0
26.51598 0
26.51938 0
26.52332 0
26.52692 0
26.53217 0
26.53564 0
26.53941 0
26.54272 0
26.54733 0
26.55071 0
26.55474 0
26.55836 0
26.56304 0
26.56677 0
26.57057 0
26.57404 0
26.57828 0
26.582 0
26.58592 0
26.58941 0
26.59373 0
26.59843 0
26.60237 0
26.60571 0
26.6102 0
26.61426 0
26.62266 0
26.62615 0
26.63045 0
26.63422 0
26.63783 0
26.64146 0
26.64571 0
26.64986 0
26.65324 0
26.65688 0
26.66027 0
26.66481 0
26.66822 0
26.67197 0
26.67596 0
26.68113 0
26.68506 0
26.69014 0
26.69397 0
26.69892 0
26.7025 0
26.70643 0
26.7099 0
26.71435 0
26.71792 0
26.72179 0
26.72521 0
26.73033 0
26.73418 0
26.73798 0
26.74152 0
26.74598 0
26.74953 0
26.75336 0
26.75675 0
26.76019 0
26.76563 0
26.76942 0
26.77296 0
26.77701 0
26.78159 0
26.78596 0
26.78942 0
26.7936 0
26.798 0
26.80176 0
26.80526 0
26.809 0
26.813 0
26.81688 0
26.82027 0
26.82384 0
26.82771 0
26.83206 0
26.83577 0
26.83938 0
26.84361 0
26.84779 0
26.85204 0
26.85546 0
26.85936 0
26.86353 0
26.86813 0
26.8715 0
26.87498 0
26.87955 0
26.88338 0
26.88664 0
26.89006 0
26.89371 0
26.89814 0
26.90163 0
26.90521 0
26.90871 0
26.91258 0
26.91667 0
26.92048 0
26.92417 0
26.92759 0
26.93203 0
26.93585 0
26.93969 0
26.94303 0
26.94755 0
26.95109 0
26.95454 0
26.95805 0
26.96234 0
26.96704 0
26.97087 0
26.97451 0
26.97933 0
26.9833 0
26.98667 0
26.99021 0
26.99363 0
26.99841 0
27.00183 0
27.00527 0
27.00883 0
27.01311 0
27.01678 0
27.02016 0
27.02365 0
27.02717 0
27.03197 0
27.03551 0
27.03889 0
27.04218 0
27.04585 0
27.0498 0
27.05334 0
27.05757 0
27.06167 0
27.06628 0
27.07038 0
27.07451 0
27.07935 0
27.08282 0
27.0864 0
27.09015 0
27.09402 0
27.09852 0
27.10221 0
27.1063 0
27.10974 0
27.11391 0
27.11744 0
27.12097 0
27.12447 0
27.12803 0
27.13226 0
27.13587 0
27.13985 0
27.14325 0
27.14771 0
27.15123 0
27.15508 0
27.15862 0
27.16242 0
27.16647 0
27.17024 0
27.17431 0
27.17917 0
27.18283 0
27.18597 0
27.18956 0
27.19315 0
27.19784 0
27.20186 0
27.20548 0
27.20884 0
27.21245 0
27.21664 0
27.22046 0
27.22383 0
27.22767 0
27.23196 0
27.23516 0
27.23861 0
27.24316 0
27.24776 0
27.25145 0
27.25529 0
27.25901 0
27.26371 0
27.26724 0
27.27097 0
27.27447 0
27.27802 0
27.28272 0
27.28643 0
27.29026 0
27.29389 0
27.29889 0
27.30236 0
27.30612 0
27.30976 0
27.31364 0
27.31735 0
27.32082 0
27.32442 0
27.32883 0
27.33269 0
27.33594 0
27.33961 0
27.34315 0
27.34748 0
27.35096 0
27.35434 0
27.35784 0
27.36147 0
27.36558 0
27.36884 0
27.37248 0
27.37611 0
27.38019 0
27.38383 0
27.38752 0
27.3907 0
27.39463 0
27.39915 0
27.40262 0
27.40626 0
27.41002 0
27.41464 0
27.41807 0
27.42169 0
27.42526 0
27.42907 0
27.43326 0
27.43661 0
27.44038 0
27.44381 0
27.44836 0
27.45176 0
27.4553 0
27.45863 0
27.46225 0
27.46619 0
27.46959 0
27.47345 0
27.4772 0
27.4814 0
27.48498 0
27.49266 0
27.49636 0
27.50014 0
27.50356 0
27.50684 0
27.51034 0
27.51468 0
27.51805 0
27.52146 0
27.525 0
27.52898 0
27.5331 0
27.53683 0
27.54075 0
27.54394 0
27.54854 0
27.55222 0
27.55585 0
27.55931 0
27.56372 0
27.56732 0
27.57077 0
27.57404 0
27.57873 0
27.58281 0
27.58699 0
27.59042 0
27.59472 0
27.59929 0
27.60308 0
27.60659 0
27.6106 0
27.61467 0
27.61879 0
27.62235 0
27.62615 0
27.63055 0
27.63457 0
27.63807 0
27.64209 0
27.64607 0
27.6503 0
27.65379 0
27.65775 0
27.66117 0
27.66612 0
27.66981 0
27.6737 0
27.67726 0
27.68223 0
27.68588 0
27.6897 0
27.69305 0
27.69792 0
27.7014 0
27.70518 0
27.70865 0
27.71245 0
27.71665 0
27.72027 0
27.72461 0
27.72845 0
27.73275 0
27.73611 0
27.73965 0
27.74306 0
27.74715 0
27.75072 0
27.75402 0
27.75756 0
27.76176 0
27.76633 0
27.77017 0
27.77372 0
27.77721 0
27.78156 0
27.78491 0
27.78849 0
27.79215 0
27.79701 0
27.80089 0
27.80484 0
27.80849 0
27.81214 0
27.81609 0
27.81952 0
27.82337 0
27.82762 0
27.83201 0
27.83542 0
27.83931 0
27.84269 0
27.84665 0
27.85062 0
27.85463 275
27.85872 275
27.86332 275
27.86698 275
27.87143 275
27.87501 275
27.8788 275
27.88297 275
27.88711 275
27.89057 275
27.89423 275
27.89899 275
27.90272 275
27.90644 275
27.9101 275
27.91423 275
27.91756 275
27.92107 275
27.9247 275
27.92797 275
27.93258 275
27.93567 275
27.9392 275
27.9423 275
27.94679 275
27.95056 275
27.95427 275
27.95739 275
27.96077 275
27.96506 275
27.96831 275
27.97162 275
27.97512 275
27.97847 275
27.98214 275
27.98535 275
27.98869 275
27.9923 275
27.99655 275
28.00042 275
28.00388 275
28.00736 275
28.01082 275
28.01506 275
28.01823 275
28.02164 275
28.02501 275
28.02851 275
28.03257 275
28.03565 275
28.03939 275
28.04258 275
28.04595 275
28.04958 275
28.05325 275
28.05713 275
28.06045 275
28.08836 275
28.12169 275
28.15449 275
28.1847 275
28.20946 275
28.24279 275
28.27247 275
28.29913 275
28.324 275
28.34807 275
28.37286 275
28.40249 275
28.42669 275
28.44916 275
28.47369 275
28.49863 275
28.53079 279
28.55612 279
28.58659 279
28.61259 279
28.64592 279
28.67281 283
28.6985 283
28.73183 283
28.75773 283
28.78157 283
28.80761 288
28.83174 288
28.86228 288
28.88599 288
28.91932 288
28.94537 288
28.96902 292
28.99291 292
29.01788 292
29.04332 292
29.0674 297
29.09039 297
29.1157 297
29.14166 297
29.16603 297
29.18884 297
29.21409 301
29.24272 301
29.26711 301
29.29067 301
29.32244 301
29.34659 301
29.3704 301
29.39382 301
29.41901 301
29.44461 301
29.46831 301
29.4915 301
29.51642 301
29.54029 301
29.56379 301
29.58689 301
29.61226 301
29.6407 301
29.66455 301
29.68756 301
29.7163 301
29.74021 301
29.7649 301
29.78851 301
29.81419 301
29.84344 301
29.86798 301
29.89167 301
29.92063 301
29.94669 301
29.97057 301
29.99412 301
30.02072 301
30.04637 301
30.0704 301
30.09989 301
30.1237 301
30.15339 301
30.17751 301
30.20075 301
30.22461 301
30.24909 301
30.27434 301
30.29781 301
30.32222 301
30.3475 301
30.37164 301
30.3952 301
30.42199 301
30.44683 301
30.47099 301
30.49467 301
30.52279 301
30.54673 301
30.57008 301
30.59397 301
30.62521 301
30.65028 301
30.67468 301
30.70623 301
30.73743 301
30.76211 301
30.79167 301
30.8171 301
30.84198 301
30.86736 301
30.89135 301
30.91587 301
30.94049 301
30.96959 301
30.99463 301
31.02788 301
31.05275 301
31.07713 301
31.10067 301
31.1253 301
31.15042 301
31.17941 301
31.2035 301
31.22653 301
31.25222 301
31.2774 301
31.30229 301
31.32521 301
31.3496 301
31.37368 301
31.39757 301
31.42105 301
31.44794 301
31.47242 301
31.49648 301
31.51912 301
31.54325 301
31.56867 301
31.59234 301
31.61555 301
31.63962 301
31.66465 301
31.68904 301
31.7125 301
31.73678 301
31.76572 301
31.78993 301
31.81627 301
31.84961 301
31.8742 301
31.89823 301
31.92182 301
31.95086 301
31.97652 301
32.00037 301
32.02265 301
32.04764 301
32.07145 301
32.09542 301
32.11874 301
32.14358 301
32.16804 301
32.193 301
32.21634 301
32.24139 301
32.26612 301
32.28982 301
32.31334 305
32.3371 305
32.36255 305
32.38876 305
32.41284 305
32.44179 305
32.46678 305
32.49021 305
32.51405 310
32.53879 310
32.56533 310
32.58922 310
32.61285 310
32.63686 310
32.66212 310
32.68961 310
32.7157 310
32.73998 310
32.77331 310
32.79862 310
32.82492 310
32.85001 310
32.87529 310
32.90078 310
32.92536 310
32.95197 310
32.97675 310
33.00792 310
33.04016 310
33.06466 310
33.09616 310
33.11955 310
33.14722 314
33.17233 314
33.20392 314
33.23244 314
33.26355 314
33.28789 314
33.312 314
33.3357 314
33.35973 318
33.38375 318
33.41111 318
33.43514 318
33.46168 318
33.48583 318
33.51078 318
33.53713 318
33.56109 323
33.5854 323
33.61726 323
33.64511 323
33.66808 323
33.69233 323
33.71774 323
33.7423 323
33.76606 323
33.79087 323
33.81658 323
33.84301 323
33.8673 323
33.89172 323
33.92264 323
33.94671 323
33.96963 323
33.99368 323
34.0267 323
34.0503 323
34.07336 323
34.09834 323
34.1233 323
34.14746 323
34.17054 323
34.19556 323
34.22056 323
34.25078 323
34.2738 323
34.30219 323
34.32917 323
34.35306 323
34.37714 323
34.40242 323
34.43132 323
34.45471 323
34.47765 323
34.5026 323
34.52968 323
34.55394 323
34.57701 323
34.61034 323
34.63413 323
34.66172 323
34.6842 323
34.70987 323
34.73386 323
34.75827 323
34.78139 323
34.80782 323
34.83336 323
34.85808 323
34.89075 323
34.91722 323
34.94215 323
34.96965 323
34.999 323
35.02342 323
35.04831 323
35.07218 323
35.09509 323
35.11942 323
35.14369 323
35.16758 323
35.19132 323
35.22042 323
35.24549 323
35.27002 323
35.29371 323
35.31868 323
35.34388 323
35.36925 323
35.3937 323
35.41857 323
35.44305 323
35.46869 323
35.49316 323
35.51823 323
35.55156 323
35.57584 323
35.59899 323
35.62533 323
35.64981 323
35.68137 323
35.70605 323
35.73203 323
35.75771 323
35.78277 323
35.80946 323
35.83691 323
35.86349 323
35.88834 323
35.91322 323
35.93941 323
35.96475 323
35.99007 323
36.01409 323
36.03979 323
36.06476 323
36.08982 323
36.11368 323
36.13956 323
36.16479 323
36.18865 323
36.21243 323
36.23806 323
36.26271 323
36.28845 323
36.31219 323
36.3375 323
36.36264 323
36.38703 323
36.41061 323
36.43487 323
36.46002 323
36.48539 323
36.50922 323
36.53416 323
36.55914 323
36.58341 323
36.60704 323
36.63118 323
36.66452 323
36.68859 323
36.71317 323
36.73754 323
36.76318 323
36.78853 323
36.81287 323
36.83809 323
36.86253 323
36.8862 323
36.91152 323
36.93578 323
36.95984 323
36.99318 323
37.01656 323
37.04188 323
37.06643 323
37.09325 323
37.11706 323
37.1475 323
37.17217 323
37.19589 323
37.22 323
37.24581 323
37.27146 323
37.29583 323
37.32013 323
37.34798 323
37.37271 323
37.39731 323
37.42103 323
37.44638 323
37.47396 323
37.49826 323
37.52158 323
37.54741 323
37.5728 323
37.59757 323
37.62189 323
37.64677 323
37.6788 323
37.70448 323
37.7361 323
37.76061 323
37.78626 323
37.81455 323
37.83841 323
37.86581 323
37.89494 323
37.92827 323
37.96161 323
37.98808 323
38.01475 323
38.04219 323
38.06601 323
38.09014 323
38.1148 323
38.14027 323
38.16383 323
38.18871 323
38.21362 323
38.23864 323
38.26442 323
38.29111 323
38.31753 323
38.34402 323
38.36889 323
38.39518 323
38.42111 323
38.44629 323
38.47139 323
38.50314 323
38.52932 323
38.55459 323
38.57885 323
38.60646 323
38.63228 323
38.6567 323
38.68096 323
38.7061 323
38.73445 323
38.76107 323
38.78581 323
38.81226 323
38.83891 323
38.8671 323
38.89218 323
38.91776 323
38.94128 323
38.96501 323
38.9883 323
39.01248 323
39.03658 323
39.06289 323
39.08627 323
39.11209 323
39.13886 327
39.17035 327
39.19265 327
39.221 327
39.24486 327
39.26834 327
39.29099 327
39.31807 327
39.34198 327
39.3656 327
39.38846 327
39.41281 327
39.43999 327
39.46539 327
39.48867 327
39.51301 327
39.53756 327
39.56065 327
39.58439 327
39.60837 327
39.63303 327
39.65622 327
39.67961 327
39.70399 327
39.72768 327
39.75254 327
39.77528 327
39.80274 327
39.82671 327
39.85011 327
39.87265 327
39.89735 327
39.92384 327
39.94709 327
39.96945 327
39.99301 327
40.0178 327
40.04095 327
40.06379 327
40.08833 327
40.11249 327
40.13604 327
40.15878 327
40.18319 327
40.20741 327
40.23178 327
40.2551 327
40.27998 327
40.30928 327
40.333 327
40.3551 327
40.38049 327
40.40443 327
40.42765 327
40.45021 327
40.47399 327
40.49789 327
40.52154 327
40.55285 327
40.57655 327
40.60001 327
40.62349 327
40.64729 327
40.67195 327
40.69801 327
40.72202 327
40.74489 327
40.77118 327
40.79683 327
40.82161 327
40.84602 327
40.87129 327
40.89945 327
40.92313 327
40.94574 327
40.973 327
41.00072 327
41.02378 327
41.04725 327
41.07168 327
41.09627 327
41.1212 327
41.14681 327
41.17146 327
41.19522 327
41.22179 327
41.24406 327
41.26913 327
41.29483 327
41.32193 327
41.35004 327
41.37711 327
41.40204 327
41.42662 327
41.45318 327
