時間[s] タイヤの舵角[deg]
1.481584 0
1.507324 0
1.947235 0
1.987926 0
2.01393 0
2.028376 0
2.03498 0
2.058611 0
2.084498 0
2.101479 0
2.1168 0
2.130323 0
2.157617 0
2.176005 0
2.19624 0
2.211568 0
2.227195 0
2.243548 0
2.260918 0
2.27729 0
2.293204 0
2.299493 0
2.305557 0
2.312238 0
2.318675 0
2.324469 0
2.330893 0
2.337188 0
2.34359 0
2.34952 0
2.35514 0
2.361361 0
2.368583 0
2.374763 0
2.381272 0
2.387086 0
2.393714 0
2.400176 0
2.406404 0
2.413098 0
2.41903 0
2.425553 0
2.432088 0
2.438674 0
2.444637 0
2.450568 0
2.456854 0
2.463124 0
2.469696 0
2.47628 0
2.482711 0
2.488645 0
2.494369 0
2.500487 0
2.506485 0
2.512451 0
2.518702 0
2.524483 0
2.530573 0
2.53649 0
2.542506 0
2.548851 0
2.554621 0
2.560874 0
2.567115 0
2.574517 0
2.580693 0
2.58691 0
2.592863 0
2.598699 0
2.604592 0
2.610799 0
2.616462 0
2.622433 0
2.628847 0
2.634665 0
2.640739 0
2.646525 0
2.652261 0
2.658005 0
2.66391 0
2.669689 0
2.675307 0
2.681012 0
2.68752 0
2.693285 0
2.699209 0
2.705594 0
2.712447 0
2.718836 0
2.72463 0
2.73063 0
2.737077 0
2.742988 0
2.748702 0
2.754584 0
2.761031 0
2.767171 -11.815
2.775383 -11.815
2.781618 -11.815
2.787684 -11.815
2.794711 -11.815
2.801159 -11.815
2.807179 -11.815
2.813345 -11.815
2.819572 -11.815
2.825917 -11.815
2.832167 -11.815
2.873004 -11.815
2.910433 -11.815
2.955099 -11.815
2.987593 -11.815
3.016889 -11.815
3.044037 -11.815
3.075833 -11.815
3.104138 -11.815
3.132002 -11.815
3.158586 -11.815
3.186345 -11.815
3.215373 -11.815
3.251022 -11.815
3.278437 -11.815
3.307481 -11.815
3.33564 -11.815
3.363068 -11.815
3.388723 -11.815
3.416449 -11.815
3.445771 -11.815
3.473356 -11.815
3.506573 -11.815
3.534037 -11.815
3.562158 -11.815
3.598836 -11.815
3.624987 -11.815
3.664084 -11.815
3.691749 -11.815
3.718966 -11.815
3.74561 -11.815
3.775714 -11.815
3.803338 -11.815
3.830242 -11.815
3.858182 -11.815
3.887114 -11.815
3.916143 -11.815
3.94444 -11.815
3.972621 -11.815
4.000572 -11.815
4.02848 -11.815
4.05744 -11.815
4.084877 -11.815
4.112239 -11.815
4.139299 -11.815
4.167433 -11.815
4.197375 -11.815
4.224577 -11.815
4.251866 -11.815
4.287054 -11.815
4.315149 -11.815
4.342546 -11.815
4.372288 -11.815
4.399827 -11.815
4.42626 -11.815
4.46153 -11.815
4.490776 -11.815
4.520441 -11.815
4.546677 -11.815
4.575354 -11.815
4.606592 -11.815
4.634292 -11.815
4.661322 -11.815
4.689301 -11.815
4.71792 -11.815
4.752192 -11.815
4.77942 -11.815
4.812178 -11.815
4.845415 -11.815
4.872511 -11.815
4.898909 -11.815
4.927114 -11.815
4.95744 -11.815
4.985107 -11.815
5.024154 -11.815
5.051793 -11.815
5.090792 -11.815
5.117815 -11.815
5.144565 -11.815
5.173537 -11.815
5.201543 -11.815
5.228592 -11.815
5.255267 -11.815
5.282701 -11.815
5.309981 -11.815
5.336925 -11.815
5.375457 -11.815
5.406321 -11.815
5.434418 -11.815
5.463387 -11.815
5.501803 -11.815
5.529638 -11.815
5.557714 -11.815
5.584632 -11.815
5.613166 -11.815
5.642231 -11.815
5.670975 -11.815
5.704321 -11.815
5.731255 -11.815
5.758513 -11.815
5.788245 -11.815
5.818017 -11.815
5.84841 -11.815
5.881623 -11.815
5.911204 -11.815
5.939033 -11.815
5.96913 -11.815
5.996531 -11.815
6.025336 -11.815
6.053943 -11.815
6.084058 -11.815
6.111814 -11.815
6.13899 -11.815
6.166082 -11.815
6.19295 -11.815
6.221981 -11.815
6.256597 -11.815
6.283845 -11.815
6.310343 -11.815
6.338811 -11.815
6.36717 -11.815
6.39511 -11.815
6.421199 -11.815
6.449484 -11.815
6.478686 -11.815
6.506696 -11.815
6.537167 -11.815
6.565852 -11.815
6.594161 -11.815
6.621302 -11.815
6.648339 -11.815
6.677417 -11.815
6.707307 -11.815
6.735437 -11.815
6.765947 -11.815
6.806465 -11.815
6.834667 -11.815
6.862607 -11.815
6.889648 -11.815
6.919524 -11.815
6.947949 -11.815
6.983253 -11.815
7.009319 -11.815
7.03826 -11.815
7.066754 -11.815
7.104869 -11.815
7.133322 -11.815
7.161925 -11.815
7.189708 -11.815
7.218054 -11.815
7.244125 -11.815
7.272007 -11.815
7.300186 -11.815
7.327939 -11.815
7.356709 -11.815
7.384834 -11.815
7.413991 -11.815
7.44834 -11.815
7.474837 -11.815
7.502295 -11.815
7.530876 -11.815
7.566958 -11.815
7.598011 -11.815
7.626628 -11.815
7.654912 -11.815
7.68259 -11.815
7.709671 -11.815
7.737567 -11.815
7.767202 -11.815
7.794542 -11.815
7.82053 -11.815
7.849119 -11.815
7.88523 -11.815
7.912953 -11.815
7.939612 -11.815
7.975249 -11.815
8.002666 -11.815
8.03054 -11.815
8.068135 -11.815
8.103999 -11.815
8.131103 -11.815
8.157751 -11.815
8.185313 -11.815
8.213111 -11.815
8.242172 -11.815
8.268843 -11.815
8.295451 -11.815
8.32327 -11.815
8.359267 -11.815
8.388291 -11.815
8.414777 -11.815
8.446644 -11.815
8.474377 -11.815
8.50478 -11.815
8.531149 -11.815
8.560697 -11.815
8.590628 -11.815
8.617868 -11.815
8.644511 -11.815
8.672688 -11.815
8.700735 -11.815
8.728417 -11.815
8.754889 -11.815
8.783241 -11.815
8.813971 -11.815
8.841087 -11.815
8.866984 -11.815
8.893908 -11.815
8.922479 -11.815
8.953545 -11.815
8.980352 -11.815
9.009253 -11.815
9.038811 -11.815
9.066688 -11.815
9.093708 -11.815
9.122165 -11.815
9.158629 -11.815
9.186896 -11.815
9.212748 -11.815
9.242849 -11.815
9.270937 -11.815
9.298983 -11.815
9.3284 -11.815
9.356209 -11.815
9.384439 -11.815
9.411507 -11.815
9.438765 -11.815
9.467678 -11.815
9.49554 -11.815
9.522712 -11.815
9.549351 -11.815
9.577089 -11.815
9.604555 -11.815
9.631558 -11.815
9.658551 -11.815
9.688187 -11.815
9.716532 -11.815
9.745667 -11.815
9.77317 -11.815
9.801004 -11.815
9.833077 -11.815
9.859626 -11.815
9.89495 -11.815
9.924944 -11.815
9.95423 -11.815
9.982578 -11.815
10.01997 -11.815
10.05153 -11.815
10.0795 -11.815
10.11062 -11.815
10.14836 -11.815
10.17692 -11.815
10.20548 -11.815
10.23301 -11.815
10.25959 -11.815
10.28841 -11.815
10.31728 -11.815
10.34395 -11.815
10.37071 -11.815
10.39899 -11.815
10.42661 -11.815
10.45371 -11.815
10.48034 -11.815
10.51389 -11.815
10.54426 -11.815
10.5718 -11.815
10.59849 -11.815
10.62653 -11.815
10.65455 -11.815
10.68302 -11.815
10.7098 -11.815
10.73805 -11.815
10.77046 -11.815
10.79747 -11.815
10.82443 -11.815
10.85273 -11.815
10.88103 -11.815
10.90803 -11.815
10.93552 -11.815
10.96409 -11.815
10.99375 -11.815
11.02051 -11.815
11.04658 -11.815
11.07609 -11.815
11.10892 -11.815
11.14146 -11.815
11.16894 -11.815
11.19922 -11.815
11.22769 -11.815
11.25554 -11.815
11.28237 -11.815
11.31028 -11.815
11.33881 -11.815
11.36636 -11.815
11.39325 -11.815
11.42287 -11.815
11.45057 -11.815
11.47778 -11.815
11.50442 -11.815
11.53378 -11.815
11.56453 -11.815
11.59134 -11.815
11.61829 -11.815
11.64802 -11.815
11.67557 -11.815
11.70847 -11.815
11.73522 -11.815
11.76372 -11.815
11.79232 -11.815
11.81968 -11.815
11.84794 -11.815
11.8771 -11.815
11.91272 -11.815
11.94002 -11.815
11.96741 -11.815
11.99463 -11.815
12.02286 -11.815
12.0623 -11.815
12.0909 -11.815
12.11922 -11.815
12.14702 -11.815
12.17415 -11.815
12.20111 -11.815
12.22817 -11.815
12.25799 -11.815
12.28515 -11.815
12.3131 -11.815
12.35203 -11.815
12.3918 -11.815
12.42014 -11.815
12.44677 -11.815
12.48477 -11.815
12.51254 -11.815
12.54001 -11.815
12.56648 -11.815
12.59456 -11.815
12.62248 -11.815
12.65029 -11.815
12.68302 -11.815
12.7124 -11.815
12.74054 -11.815
12.76818 -11.815
12.79583 -11.815
12.82403 -11.815
12.86313 -11.815
12.89747 -11.815
12.92361 -11.815
12.95372 -11.815
12.99319 -11.815
13.02092 -11.815
13.04765 -11.815
13.07483 -11.815
13.10466 -11.815
13.13228 -11.815
13.15892 -11.815
13.18715 -11.815
13.21944 -11.815
13.24874 -11.815
13.28452 -11.815
13.32279 -11.815
13.35084 -11.815
13.38484 -11.815
13.41132 -11.815
13.44069 -11.815
13.47924 -11.815
13.50622 -11.815
13.53347 -11.815
13.56161 -11.815
13.58929 -11.815
13.61664 -11.815
13.64392 -11.815
13.679 -11.815
13.71655 -11.815
13.74556 -11.815
13.77186 -11.815
13.79972 -11.815
13.8275 -11.815
13.85478 -11.815
13.88212 -11.815
13.90967 -11.815
13.9383 -11.815
13.96832 -11.815
13.99479 -11.815
14.02299 -11.815
14.0511 -11.815
14.08258 -11.815
14.1091 -11.815
14.13889 -11.815
14.16885 -11.815
14.19569 -11.815
14.22276 -11.815
14.25076 -11.815
14.27839 -11.815
14.30552 -11.815
14.33279 -11.815
14.36892 -11.815
14.3986 -11.815
14.4257 -11.815
14.46189 -11.815
14.48966 -11.815
14.5178 -11.815
14.54482 -11.815
14.5713 -11.815
14.60149 -11.815
14.62913 -11.815
14.65594 -11.815
14.68295 -11.815
14.71128 -11.815
14.74067 -11.815
14.76781 -11.815
14.79505 -11.815
14.82474 -11.815
14.85186 -11.815
14.87896 -11.815
14.90528 -11.815
14.93458 -11.815
14.96283 -11.815
14.98991 -11.815
15.01632 -11.815
15.04556 -11.815
15.07385 -11.815
15.10122 -11.815
15.12838 -11.815
15.15616 -11.815
15.18454 -11.815
15.21113 -11.815
15.23797 -11.815
15.27732 -11.815
15.31255 -11.815
15.33942 -11.815
15.36644 -11.815
15.39557 -11.815
15.42599 -11.815
15.45331 -11.815
15.48267 -11.815
15.51045 -11.815
15.53763 -11.815
15.5648 -11.815
15.59127 -11.815
15.61996 -11.815
15.64928 -11.815
15.67759 -11.815
15.71447 -11.815
15.74242 -11.815
15.77115 -11.815
15.80482 -11.815
15.8321 -11.815
15.85986 -11.815
15.89369 -11.815
15.92402 -11.815
15.9517 -11.815
15.9788 -11.815
16.00718 -11.815
16.03402 -11.815
16.06514 -11.815
16.09298 -11.815
16.1215 -11.815
16.15295 -11.815
16.2007 -11.815
16.2288 -11.815
16.25693 -11.815
16.28478 -11.815
16.31637 -11.815
16.34407 -11.815
16.37934 -11.815
16.40676 -11.815
16.43304 -11.815
16.46894 -11.815
16.50517 -11.815
16.53285 -11.815
16.559 -11.815
16.58887 -11.815
16.62607 -11.815
16.65379 -11.815
16.68035 -11.815
16.70862 -11.815
16.73688 -11.815
16.76958 -11.815
16.79734 -11.815
16.82593 -11.815
16.85474 -11.815
16.89289 -11.815
16.91948 -11.815
16.95449 -11.815
16.9819 -11.815
17.01026 -11.815
17.03682 -11.815
17.06991 -11.815
17.10014 -11.815
17.12955 -11.815
17.15931 -11.815
17.18722 -11.815
17.21741 -11.815
17.25188 -11.815
17.2791 -11.815
17.31539 -11.815
17.34299 -11.815
17.37054 -11.815
17.39779 -11.815
17.42735 -11.815
17.45568 -11.815
17.48354 -11.815
17.5121 -11.815
17.54059 -11.815
17.56952 -11.815
17.60386 -11.815
17.63349 -11.815
17.66192 -11.815
17.69016 -11.815
17.71771 -11.815
17.74567 -11.815
17.7732 -11.815
17.80096 -11.815
17.83132 -11.815
17.85937 -11.815
17.88772 -11.815
17.91517 -11.815
17.94198 -11.815
17.96894 -11.815
17.9963 -11.815
18.02411 -11.815
18.05118 -11.815
18.07836 -11.815
18.10939 -11.815
18.1396 -11.815
18.16697 -11.815
18.19624 -11.815
18.22432 -11.815
18.25168 -11.815
18.28131 -11.815
18.30799 -11.815
18.33644 -11.815
18.3648 -11.815
18.3917 -11.815
18.41842 -11.815
18.44763 -11.815
18.48709 -11.815
18.51515 -11.815
18.54069 -11.815
18.5697 -11.815
18.59982 -11.815
18.62702 -11.815
18.65388 -11.815
18.68332 -11.815
18.71203 -11.815
18.74117 -11.815
18.76758 -11.815
18.79638 -11.815
18.825 -11.815
18.85254 -11.815
18.87913 -11.815
18.90655 -11.815
18.93575 -11.815
18.96511 -11.815
18.99142 -11.815
19.01888 -11.815
19.04664 -11.815
19.075 -11.815
19.1017 -11.815
19.13069 -11.815
19.15908 -11.815
19.18822 -11.815
19.2152 -11.815
19.2442 -11.815
19.27363 -11.815
19.30052 -11.815
19.32738 -11.815
19.35562 -11.815
19.38335 -11.815
19.41218 -11.815
19.43959 -11.815
19.46824 -11.815
19.49606 -11.815
19.52306 -11.815
19.5492 -11.815
19.57816 -11.815
19.60692 -11.815
19.63593 -11.815
19.66263 -11.815
19.69092 -11.815
19.71958 -11.815
19.74694 -11.815
19.77374 -11.815
19.80139 -11.815
19.82976 -11.815
19.86358 -11.815
19.8893 -11.815
19.9165 -11.815
19.94531 -11.815
19.97385 -11.815
20.00034 -11.815
20.03105 -11.815
20.0606 -11.815
20.08865 -11.815
20.11534 -11.815
20.14392 -11.815
20.17263 -11.815
20.20143 -11.815
20.23526 -11.815
20.26462 -11.815
20.29233 -11.815
20.31983 -11.815
20.34602 -11.815
20.37366 -11.815
20.40141 -11.815
20.43142 -11.815
20.45882 -11.815
20.48836 -11.815
20.51877 -11.815
20.54582 -11.815
20.57371 -11.815
20.60438 -11.815
20.6322 -11.815
20.66088 -11.815
20.6893 -11.815
20.71899 -11.815
20.74762 -11.815
20.77434 -11.815
20.80141 -11.815
20.82915 -11.815
20.8567 -11.815
20.89012 -11.815
20.91795 -11.815
20.94615 -11.815
20.97418 -11.815
21.00477 -11.815
21.03658 -11.815
21.06395 -11.815
21.09284 -11.815
21.12129 -11.815
21.15621 -11.815
21.18368 -11.815
21.21166 -11.815
21.23988 -11.815
21.27041 -11.815
21.29886 -11.815
21.32815 -11.815
21.35542 -11.815
21.38151 -11.815
21.4101 -11.815
21.43921 -11.815
21.46585 -11.815
21.49996 -11.815
21.53952 -11.815
21.56818 -11.815
21.59566 -11.815
21.62175 -11.815
21.65082 -11.815
21.68944 -11.815
21.72692 -11.815
21.7551 -11.815
21.78239 -11.815
21.81107 -11.815
21.83868 -11.815
21.86505 -11.815
21.89461 -11.815
21.92375 -11.815
21.95255 -11.815
21.9844 -11.815
22.01185 -11.815
22.03915 -11.815
22.07404 -11.815
22.10977 -11.815
22.13939 -11.815
22.17535 -11.815
22.20438 -11.815
22.23147 -11.815
22.26918 -11.815
22.29777 -11.815
22.33481 -11.815
22.36089 -11.815
22.38925 -11.815
22.41812 -11.815
22.44567 -11.815
22.47225 -11.815
22.50063 -11.815
22.52794 -11.815
22.55517 -11.815
22.58399 -11.815
22.61416 -11.815
22.64325 -11.815
22.67022 -11.815
22.69597 -11.815
22.72411 -11.815
22.75353 -11.815
22.78113 -11.815
22.80773 -11.815
22.83596 -11.815
22.86638 -11.815
22.89351 -11.815
22.93094 -11.815
22.96002 -11.815
22.98751 -11.815
23.01464 -11.815
23.04055 -11.815
23.06999 -11.815
23.09907 -11.815
23.12606 -11.815
23.1526 -11.815
23.17987 -11.815
23.20835 -11.815
23.23876 -11.815
23.26607 -11.815
23.29544 -11.815
23.32346 -11.815
23.35731 -11.815
23.38371 -11.815
23.41214 -11.815
23.44003 -11.815
23.46912 -11.815
23.49626 -11.815
23.52668 -11.815
23.55419 -11.815
23.58166 -11.815
23.60863 -11.815
23.64928 -11.815
23.67747 -11.815
23.70695 -11.815
23.73299 -11.815
23.76174 -11.815
23.79751 -11.815
23.82493 -11.815
23.85133 -11.815
23.8796 -11.815
23.91025 -11.815
23.9425 -11.815
23.96936 -11.815
23.99705 -11.815
24.02423 -11.815
24.052 -11.815
24.07855 -11.815
24.10691 -11.815
24.13688 -11.815
24.16493 -11.815
24.19985 -11.815
24.22814 -11.815
24.25638 -11.815
24.28409 -11.815
24.31504 -11.815
24.34549 -11.815
24.37343 -11.815
24.40102 -11.815
24.43137 -11.815
24.45983 -11.815
24.48944 -11.815
24.51995 -11.815
24.54877 -11.815
24.58448 -11.815
24.61983 -11.815
24.64725 -11.815
24.67696 -11.815
24.7054 -11.815
24.73359 -11.815
24.76235 -11.815
24.78789 -11.815
24.81638 -11.815
24.84406 -11.815
24.871 -11.815
24.89757 -11.815
24.92587 -11.815
24.95522 -11.815
24.98534 -11.815
25.01217 -11.815
25.04001 -11.815
25.06731 -11.815
25.0944 -11.815
25.12169 -11.815
25.14988 -11.815
25.1773 -11.815
25.20636 -11.815
25.23321 -11.815
25.26083 -11.815
25.28821 -11.815
25.31605 -11.815
25.34409 -11.815
25.37222 -11.815
25.40211 -11.815
25.43094 -11.815
25.4577 -11.815
25.48561 -11.815
25.51304 -11.815
25.54057 -11.815
25.56701 -11.815
25.59619 -11.815
25.62448 -11.815
25.6541 -11.815
25.68122 -11.815
25.71017 -11.815
25.73842 -11.815
25.7666 -11.815
25.79372 -11.815
25.82201 -11.815
25.85028 -11.815
25.8796 -11.815
25.90565 -11.815
25.9357 -11.815
25.96471 -11.815
25.99355 -11.815
26.01992 -11.815
26.04801 -11.815
26.07829 -11.815
26.10797 -11.815
26.13478 -11.815
26.16342 -11.815
26.19244 -11.815
26.21893 -11.815
26.24526 -11.815
26.27615 -11.815
26.30297 -11.815
26.33227 -11.815
26.35848 -11.815
26.39037 -11.815
26.41853 -11.815
26.44593 -11.815
26.47392 -11.815
26.50727 -11.815
26.54213 -11.815
26.57443 -11.815
26.60469 -11.815
26.63333 -11.815
26.66116 -11.815
26.68853 -11.815
26.71518 -11.815
26.746 -11.815
26.77888 -11.815
26.80729 -11.815
26.83867 -11.815
26.86694 -11.815
26.89482 -11.815
26.92244 -11.815
26.95291 -11.815
26.98997 -11.815
27.0171 -11.815
27.04488 -11.815
27.07116 -11.815
27.10075 -11.815
27.12841 -11.815
27.15804 -11.815
27.18371 -11.815
27.21146 -11.815
27.23975 -11.815
27.27561 -11.815
27.31343 -11.815
27.34214 -11.815
27.37257 -11.815
27.4017 -11.815
27.42815 -11.815
27.45645 -11.815
27.48502 -11.815
27.51271 -11.815
27.53905 -11.815
27.56688 -11.815
27.5971 -11.815
27.62463 -11.815
27.65121 -11.815
27.67945 -11.815
27.70807 -11.815
27.74004 -11.815
27.77095 -11.815
27.80071 -11.815
27.82965 -11.815
27.85644 -11.815
27.88341 -11.815
27.91152 -11.815
27.93994 -11.815
27.96911 -11.815
27.99542 -11.815
28.02494 -11.815
28.05308 -11.815
28.08152 -11.815
28.10835 -11.815
28.13702 -11.815
28.16483 -11.815
28.19196 -11.815
28.21868 -11.815
28.25398 -11.815
28.28251 -11.815
28.31005 -11.815
28.33717 -11.815
28.36669 -11.815
28.39562 -11.815
28.42374 -11.815
28.45102 -11.815
28.47804 -11.815
28.5151 -11.815
28.54224 -11.815
28.56862 -11.815
28.59679 -11.815
28.62513 -11.815
28.66121 -11.815
28.68853 -11.815
28.71605 -11.815
28.74459 -11.815
28.77227 -11.815
28.79862 -11.815
28.82757 -11.815
28.86423 -11.815
28.89263 -11.815
28.91967 -11.815
28.94992 -11.815
28.9773 -11.815
29.00915 -11.815
29.04664 -11.815
29.07616 -11.815
29.11219 -11.815
29.1395 -11.815
29.16644 -11.815
29.19422 -11.815
29.22196 -11.815
29.24862 -11.815
29.27648 -11.815
29.30513 -11.815
29.33265 -11.815
29.35957 -11.815
29.38699 -11.815
29.41512 -11.815
29.44491 -11.815
29.472 -11.815
29.49997 -11.815
29.5286 -11.815
29.55701 -11.815
29.58444 -11.815
29.61158 -11.815
29.64038 -11.815
29.66784 -11.815
29.6953 -11.815
29.72368 -11.815
29.75147 -11.815
29.77994 -11.815
29.80756 -11.815
29.83512 -11.815
29.86316 -11.815
29.89137 -11.815
29.9231 -11.815
29.9522 -11.815
29.98128 -11.815
30.01056 -11.815
30.03809 -11.815
30.06454 -11.815
30.09285 -11.815
30.13057 -11.815
30.16868 -11.815
30.19559 -11.815
30.22379 -11.815
30.25122 -11.815
30.27938 -11.815
30.30578 -11.815
30.33382 -11.815
30.36351 -11.815
30.39165 -11.815
30.41857 -11.815
30.44604 -11.815
30.47382 -11.815
30.50136 -11.815
30.5295 -11.815
30.55828 -11.815
30.58915 -11.815
30.61584 -11.815
30.64302 -11.815
30.67102 -11.815
30.69898 -11.815
30.72634 -11.815
30.75295 -11.815
30.78219 -11.815
30.81216 -11.815
30.84012 -11.815
30.87321 -11.815
30.90185 -11.815
30.9285 -11.815
30.96474 -11.815
30.99306 -11.815
31.02269 -11.815
31.04997 -11.815
31.0905 -11.815
31.12064 -11.815
31.15508 -11.815
31.18305 -11.815
31.21058 -11.815
31.23802 -11.815
31.26655 -11.815
31.29605 -11.815
31.32333 -11.815
31.34982 -11.815
31.37902 -11.815
31.40638 -11.815
31.43411 -11.815
31.46252 -11.815
31.49091 -11.815
31.52397 -11.815
31.55268 -11.815
31.5917 -11.815
31.62646 -11.815
31.65469 -11.815
31.68423 -11.815
31.71177 -11.815
31.73924 -11.815
31.76751 -11.815
31.7945 -11.815
31.82169 -11.815
31.84942 -11.815
31.87734 -11.815
31.90591 -11.815
31.93828 -11.815
31.97641 -11.815
32.00419 -11.815
32.03157 -11.815
32.05848 -11.815
32.08598 -11.815
32.1156 -11.815
32.14243 -11.815
32.16898 -11.815
32.19667 -11.815
32.22419 -11.815
32.25257 -11.815
32.28029 -11.815
32.30819 -11.815
32.33781 -11.815
32.36752 -11.815
32.39367 -11.815
32.42251 -11.815
32.45083 -11.815
32.47758 -11.815
32.50475 -11.815
32.53354 -11.815
32.56292 -11.815
32.59039 -11.815
32.61804 -11.815
32.6461 -11.815
32.67545 -11.815
32.70344 -11.815
32.73005 -11.815
32.75889 -11.815
32.80077 -11.815
32.82767 -11.815
32.8597 -11.815
32.8881 -11.815
32.91548 -11.815
32.95174 -11.815
32.97898 -11.815
33.01146 -11.815
33.03919 -11.815
33.07515 -11.815
33.10171 -11.815
33.12971 -11.815
33.1576 -11.815
33.1846 -11.815
33.21209 -11.815
33.2455 -11.815
33.27281 -11.815
33.30023 -11.815
33.32755 -11.815
33.36267 -11.815
33.39388 -11.815
33.42596 -11.815
33.45346 -11.815
33.48198 -11.815
33.51352 -11.815
33.54034 -11.815
33.56664 -11.815
33.59504 -11.815
33.6245 -11.815
33.65099 -11.815
33.67727 -11.815
33.7052 -11.815
33.7333 -11.815
33.76189 -11.815
33.78761 -11.815
33.81915 -11.815
33.8497 -11.815
33.87715 -11.815
33.90356 -11.815
33.93246 -11.815
33.96714 -11.815
33.9943 -11.815
34.02082 -11.815
34.05173 -11.815
34.08131 -11.815
34.10894 -11.815
34.1357 -11.815
34.16265 -11.815
34.19053 -11.815
34.21773 -11.815
34.25675 -11.815
34.28653 -11.815
34.3144 -11.815
34.34259 -11.815
34.36889 -11.815
34.4006 -11.815
34.44218 -11.815
34.47843 -11.815
34.50638 -11.815
34.53482 -11.815
34.56236 -11.815
34.58905 -11.815
34.61824 -11.815
34.64615 -11.815
34.67604 -11.815
34.70343 -11.815
34.73151 -11.815
34.76084 -11.815
34.78912 -11.815
34.81735 -11.815
34.84664 -11.815
34.87424 -11.815
34.90287 -11.815
34.92973 -11.815
34.96035 -11.815
34.98795 -11.815
35.01922 -11.815
35.05719 -11.815
35.08532 -11.815
35.1141 -11.815
35.14254 -11.815
35.17753 -11.815
35.20389 -11.815
35.23286 -11.815
35.26097 -11.815
35.28804 -11.815
35.31572 -11.815
35.34457 -11.815
35.38059 -11.815
35.40873 -11.815
35.43541 -11.815
35.4734 -11.815
35.50694 -11.815
35.53434 -11.815
35.56908 -11.815
35.59879 -11.815
35.62612 -11.815
35.65353 -11.815
35.67925 -11.815
35.7075 -11.815
35.73992 -11.815
35.77588 -11.815
35.80646 -11.815
35.83441 -11.815
35.86292 -11.815
35.89297 -11.815
35.91948 -11.815
35.94889 -11.815
35.9771 -11.815
36.00634 -11.815
36.03299 -11.815
36.06069 -11.815
36.09021 -11.815
36.12099 -11.815
36.14777 -11.815
36.17615 -11.815
36.2043 -11.815
36.23414 -11.815
36.26041 -11.815
36.28789 -11.815
36.31694 -11.815
36.34418 -11.815
36.3752 -11.815
36.40863 -11.815
36.43731 -11.815
36.46483 -11.815
36.49306 -11.815
36.52197 -11.815
36.55415 -11.815
36.58121 -11.815
36.60754 -11.815
36.6351 -11.815
36.66815 -11.815
36.69551 -11.815
36.72401 -11.815
36.75134 -11.815
36.77996 -11.815
36.80666 -11.815
36.83333 -11.815
36.86105 -11.815
36.89056 -11.815
36.91779 -11.815
36.94462 -11.815
36.97388 -11.815
37.00173 -11.815
37.02929 -11.815
37.06716 -11.815
37.106 -11.815
37.1335 -11.815
37.16133 -11.815
37.18734 -11.815
37.21466 -11.815
37.24323 -11.815
37.27131 -11.815
37.2997 -11.815
37.3281 -11.815
37.35516 -11.815
37.38231 -11.815
37.40951 -11.815
37.43709 -11.815
37.46565 -11.815
37.49397 -11.815
37.52128 -11.815
37.54941 -11.815
37.5805 -11.815
37.61985 -11.815
37.64979 -11.815
37.679 -11.815
37.70737 -11.815
37.74073 -11.815
37.76664 -11.815
37.7948 -11.815
37.82241 -11.815
37.85007 -11.815
37.87666 -11.815
37.90537 -11.815
37.93406 -11.815
37.96426 -11.815
37.9919 -11.815
38.02964 -11.815
38.05787 -11.815
38.08521 -11.815
38.11145 -11.815
38.14068 -11.815
38.16996 -11.815
38.1967 -11.815
38.22377 -11.815
38.25156 -11.815
38.27913 -11.815
38.30645 -11.815
38.33316 -11.815
38.36176 -11.815
38.39552 -11.815
38.42231 -11.815
38.4497 -11.815
38.48336 -11.815
38.51221 -11.815
38.54738 -11.815
38.57362 -11.815
38.60274 -11.815
38.6304 -11.815
38.65896 -11.815
38.68475 -11.815
38.7126 -11.815
38.74112 -11.815
38.76839 -11.815
38.79497 -11.815
38.82561 -11.815
38.85349 -11.815
38.88108 -11.815
38.90803 -11.815
38.93599 -11.815
38.96623 -11.815
38.99366 -11.815
39.02864 -11.815
39.05849 -11.815
39.08638 -11.815
39.11406 -11.815
39.1398 -11.815
39.17021 -11.815
39.19795 -11.815
39.22566 -11.815
39.25504 -11.815
39.28603 -11.815
39.31386 -11.815
39.34118 -11.815
39.36857 -11.815
39.39742 -11.815
39.42519 -11.815
39.45769 -11.815
39.4852 -11.815
39.51365 -11.815
39.54332 -11.815
39.57138 -11.815
39.60316 -11.815
39.63187 -11.815
39.6598 -11.815
39.68901 -11.815
39.71563 -11.815
39.74471 -11.815
39.77435 -11.815
39.8034 -11.815
39.83068 -11.815
39.85891 -11.815
39.88945 -11.815
39.91835 -11.815
39.94568 -11.815
39.9753 -11.815
40.00356 -11.815
40.03176 -11.815
40.06076 -11.815
40.08967 -11.815
40.11927 -11.815
40.15136 -11.815
40.18097 -11.815
40.214 -11.815
40.24166 -11.815
40.26899 -11.815
40.29633 -11.815
40.32704 -11.815
40.35485 -11.815
40.38188 -11.815
40.40913 -11.815
40.43667 -11.815
40.46747 -11.815
40.4991 -11.815
40.52853 -11.815
40.55839 -11.815
40.58623 -11.815
40.61394 -11.815
40.65145 -11.815
40.67979 -11.815
40.70779 -11.815
40.73623 -11.815
40.76262 -11.815
40.79113 -11.815
40.81958 -11.815
40.85521 -11.815
40.88548 -11.815
40.91938 -11.815
40.95027 -11.815
40.97797 -11.815
41.00504 -11.815
41.03368 -11.815
41.06114 -11.815
41.08892 -11.815
41.11662 -11.815
41.14495 -11.815
41.17417 -11.815
41.20217 -11.815
41.24024 -11.815
41.26873 -11.815
41.29691 -11.815
41.32349 -11.815
41.3508 -11.815
41.39456 -11.815
41.43344 -11.815
41.46128 -11.815
41.4887 -11.815
41.52835 -11.815
41.55708 -11.815
41.58633 -11.815
41.61289 -11.815
41.64507 -11.815
41.67347 -11.815
41.70272 -11.815
41.72967 -11.815
41.75849 -11.815
41.79469 -11.815
41.82184 -11.815
41.84879 -11.815
41.87643 -11.815
41.90809 -11.815
41.93554 -11.815
41.96526 -11.815
41.995 -11.815
42.02536 -11.815
42.05247 -11.815
42.08035 -11.815
42.11609 -11.815
42.14409 -11.815
42.17197 -11.815
42.20013 -11.815
42.22891 -11.815
42.26053 -11.815
42.28759 -11.815
42.31374 -11.815
42.34091 -11.815
42.36809 -11.815
42.3965 -11.815
42.42455 -11.815
42.45234 -11.815
42.48096 -11.815
42.51307 -11.815
42.53944 -11.815
42.5675 -11.815
42.59536 -11.815
42.62303 -11.815
42.65092 -11.815
42.68123 -11.815
42.70889 -11.815
42.73538 -11.815
42.76181 -11.815
42.78954 -11.815
42.81736 -11.815
42.84433 -11.815
42.8724 -11.815
42.90488 -11.815
42.93253 -11.815
42.96039 -11.815
42.98698 -11.815
43.0145 -11.815
43.04359 -11.815
43.07734 -11.815
43.11538 -11.815
43.1423 -11.815
43.17083 -11.815
43.19979 -11.815
43.22591 -11.815
43.25484 -11.815
43.2891 -11.815
43.31729 -11.815
43.34377 -11.815
43.37141 -11.815
43.40229 -11.815
43.42962 -11.815
43.4563 -11.815
43.4838 -11.815
43.51134 -11.815
43.54039 -11.815
43.56726 -11.815
43.60219 -11.815
43.63059 -11.815
43.65725 -11.815
43.68327 -11.815
43.71096 -11.815
43.73839 -11.815
43.76751 -11.815
43.79395 -11.815
43.82187 -11.815
43.85096 -11.815
43.8783 -11.815
43.9052 -11.815
43.93354 -11.815
43.96235 -11.815
43.99154 -11.815
44.01735 -11.815
44.0444 -11.815
44.07202 -11.815
44.09984 -11.815
44.13454 -11.815
44.17047 -11.815
44.20147 -11.815
44.2332 -11.815
44.26233 -11.815
44.30084 -11.815
44.32855 -11.815
44.35566 -11.815
44.38139 -11.815
44.41951 -11.815
44.44768 -11.815
44.47524 -11.815
44.50302 -11.815
44.53119 -11.815
44.55958 -11.815
44.58644 -11.815
44.62077 -11.815
44.64899 -11.815
44.67782 -11.815
44.70522 -11.815
44.74133 -11.815
44.77174 -11.815
44.80042 -11.815
44.82977 -11.815
44.86257 -11.815
44.89103 -11.815
44.91866 -11.815
44.94659 -11.815
44.97336 -11.815
45.00611 -11.815
45.03539 -11.815
45.06322 -11.815
45.09033 -11.815
45.12396 -11.815
45.15223 -11.815
45.17886 -11.815
45.20604 -11.815
45.23578 -11.815
45.26388 -11.815
45.29218 -11.815
45.31856 -11.815
45.34624 -11.815
45.37433 -11.815
45.4028 -11.815
45.42952 -11.815
45.45919 -11.815
45.48723 -11.815
45.5211 -11.815
45.54792 -11.815
45.57606 -11.815
45.60736 -11.815
45.63726 -11.815
45.66668 -11.815
45.69485 -11.815
45.7234 -11.815
45.75296 -11.815
45.77992 -11.815
45.80922 -11.815
45.83713 -11.815
45.86628 -11.815
45.89805 -11.815
45.92594 -11.815
45.95433 -11.815
45.98264 -11.815
46.00921 -11.815
46.04552 -11.815
46.07547 -11.815
46.10398 -11.815
46.13593 -11.815
46.16587 -11.815
46.19351 -11.815
46.2412 -11.815
46.26836 -11.815
46.29793 -11.815
46.32519 -11.815
46.35273 -11.815
46.37959 -11.815
46.4133 -11.815
46.44142 -11.815
46.47278 -11.815
46.50063 -11.815
46.52922 -11.815
46.56613 -11.815
46.59344 -11.815
46.62138 -11.815
46.64994 -11.815
46.67857 -11.815
46.70737 -11.815
46.73427 -11.815
46.76261 -11.815
46.79187 -11.815
46.81872 -11.815
46.84534 -11.815
46.87332 -11.815
46.90522 -11.815
46.93372 -11.815
46.96096 -11.815
46.98905 -11.815
47.01647 -11.815
47.04377 -11.815
47.07028 -11.815
47.09888 -11.815
47.12645 -11.815
47.15565 -11.815
47.18415 -11.815
47.22095 -11.815
47.24939 -11.815
47.27649 -11.815
47.30217 -11.815
47.33242 -11.815
47.3644 -11.815
47.39221 -11.815
47.41973 -11.815
47.45113 -11.815
47.4803 -11.815
47.50825 -11.815
47.53421 -11.815
47.56402 -11.815
47.59257 -11.815
47.62108 -11.815
47.64827 -11.815
47.67736 -11.815
47.70569 -11.815
47.73285 -11.815
47.75918 -11.815
47.78882 -11.815
47.81756 -11.815
47.85258 -11.815
47.88056 -11.815
47.90952 -11.815
47.94711 -11.815
47.97502 -11.815
48.00603 -11.815
48.03369 -11.815
48.06278 -11.815
48.09113 -11.815
48.11803 -11.815
48.14661 -11.815
48.17414 -11.815
48.20475 -11.815
48.23744 -11.815
48.26636 -11.815
48.29391 -11.815
48.32167 -11.815
48.34934 -11.815
48.37699 -11.815
48.41159 -11.815
48.44106 -11.815
48.46922 -11.815
48.49738 -11.815
48.5262 -11.815
48.55298 -11.815
48.58001 -11.815
48.60778 -11.815
48.63684 -11.815
48.67027 -11.815
48.69651 -11.815
48.72507 -11.815
48.75319 -11.815
48.78039 -11.815
48.80661 -11.815
48.83467 -11.815
48.86376 -11.815
48.89289 -11.815
48.93044 -11.815
48.96058 -11.815
48.98845 -11.815
49.01701 -11.815
49.04358 -11.815
49.07567 -11.815
49.11993 -11.815
49.14926 -11.815
49.1855 -11.815
49.21299 -11.815
49.24113 -11.815
49.26838 -11.815
49.29497 -11.815
49.32467 -11.815
49.35215 -11.815
49.37958 -11.815
49.40609 -11.815
49.43492 -11.815
49.46602 -11.815
49.49424 -11.815
49.52162 -11.815
49.55689 -11.815
49.58918 -11.815
49.61638 -11.815
49.6427 -11.815
49.67519 -11.815
49.70415 -11.815
49.73122 -11.815
49.76091 -11.815
49.79914 -11.815
49.82959 -11.815
49.85695 -11.815
49.88438 -11.815
49.9134 -11.815
49.94727 -11.815
49.97695 -11.815
50.00344 -11.815
50.03133 -11.815
50.05861 -11.815
50.09564 -11.815
50.12157 -11.815
50.14964 -11.815
50.18294 -11.815
50.21022 -11.815
50.23771 -11.815
50.26538 -11.815
50.29318 -11.815
50.32092 -11.815
50.348 -11.815
50.38311 -11.815
50.41351 -11.815
50.44395 -11.815
50.47122 -11.815
50.49962 -11.815
50.53411 -11.815
50.56151 -11.815
50.58848 -11.815
50.61975 -11.815
50.64765 -11.815
50.67478 -11.815
50.70325 -11.815
50.73201 -11.815
50.7598 -11.815
50.78696 -11.815
50.81404 -11.815
50.84556 -11.815
50.87469 -11.815
50.90211 -11.815
50.92835 -11.815
50.95626 -11.815
50.98519 -11.815
51.01212 -11.815
51.03864 -11.815
51.06804 -11.815
51.09755 -11.815
51.12724 -11.815
51.15422 -11.815
51.18293 -11.815
51.21124 -11.815
51.23822 -11.815
51.26437 -11.815
51.29273 -11.815
51.31999 -11.815
51.35128 -11.815
51.37735 -11.815
51.40463 -11.815
51.4329 -11.815
51.4598 -11.815
51.48719 -11.815
51.51962 -11.815
51.54784 -11.815
51.57477 -11.815
51.60215 -11.815
51.63066 -11.815
51.65921 -11.815
51.68641 -11.815
51.71293 -11.815
51.74346 -11.815
51.77443 -11.815
51.80109 -11.815
51.82753 -11.815
51.8571 -11.815
51.88835 -11.815
51.9174 -11.815
51.94602 -11.815
51.97542 -11.815
52.00302 -11.815
52.03117 -11.815
52.05819 -11.815
52.08584 -11.815
52.1138 -11.815
52.14585 -11.815
52.17379 -11.815
52.20197 -11.815
52.23835 -11.815
52.26767 -11.815
52.30182 -11.815
52.33005 -11.815
52.36433 -11.815
52.39243 -11.815
52.41899 -11.815
52.44713 -11.815
52.47465 -11.815
52.5014 -11.815
52.52803 -11.815
52.55579 -11.815
52.58388 -11.815
52.61882 -11.815
52.64546 -11.815
52.67317 -11.815
52.70245 -11.815
52.73711 -11.815
52.76327 -11.815
52.79246 -11.815
52.82185 -11.815
52.85027 -11.815
52.87762 -11.815
52.91046 -11.815
52.93819 -11.815
52.96647 -11.815
53.00121 -11.815
53.03059 -11.815
53.06393 -11.815
53.09233 -11.815
53.11916 -11.815
53.14746 -11.815
53.17538 -11.815
53.2032 -11.815
53.23108 -11.815
53.25826 -11.815
53.28564 -11.815
53.31326 -11.815
53.33968 -11.815
53.37107 -11.815
53.39893 -11.815
53.42519 -11.815
53.45384 -11.815
53.48301 -11.815
53.5186 -11.815
53.54613 -11.815
53.57237 -11.815
53.60269 -11.815
53.63125 -11.815
53.65962 -11.815
53.68512 -11.815
53.71361 -11.815
53.74588 -11.815
53.77694 -11.815
53.8032 -11.815
53.83168 -11.815
53.86137 -11.815
53.89022 -11.815
53.91615 -11.815
53.94341 -11.815
53.97133 -11.815
53.99823 -11.815
54.02443 -11.815
54.05165 -11.815
54.0814 -11.815
54.1086 -11.815
54.13424 -11.815
54.16292 -11.815
54.19075 -11.815
54.21803 -11.815
54.24385 -11.815
54.27197 -11.815
54.3023 -11.815
54.32903 -11.815
54.35558 -11.815
54.38408 -11.815
54.4266 -11.815
54.45409 -11.815
54.47996 -11.815
54.50951 -11.815
54.53791 -11.815
54.56567 -11.815
54.5914 -11.815
54.6194 -11.815
54.64762 -11.815
54.67896 -11.815
54.70645 -11.815
54.73614 -11.815
54.7635 -11.815
54.79136 -11.815
54.8251 -11.815
54.85381 -11.815
54.88282 -11.815
54.90997 -11.815
54.93765 -11.815
54.96729 -11.815
54.99566 -11.815
55.02569 -11.815
55.05246 -11.815
55.08061 -11.815
55.10845 -11.815
55.13624 -11.815
55.16501 -11.815
55.19912 -11.815
55.23672 -11.815
55.26428 -11.815
55.29007 -11.815
55.31844 -11.815
55.34673 -11.815
55.37523 -11.815
55.40234 -11.815
55.42976 -11.815
55.45702 -11.815
55.48402 -11.815
55.5111 -11.815
55.54802 -11.815
55.5772 -11.815
55.6039 -11.815
55.63152 -11.815
55.65985 -11.815
55.68732 -11.815
55.71385 -11.815
55.74039 -11.815
55.76859 -11.815
55.79949 -11.815
55.82759 -11.815
55.85343 -11.815
55.8816 -11.815
55.91021 -11.815
55.93777 -11.815
55.96899 -11.815
55.99772 -11.815
56.02406 -11.815
56.05112 -11.815
56.08246 -11.815
56.11123 -11.815
56.13988 -11.815
56.16747 -11.815
56.19334 -11.815
56.22301 -11.815
56.2617 -11.815
56.28931 -11.815
56.31895 -11.815
56.34703 -11.815
56.37749 -11.815
56.41097 -11.815
56.43909 -11.815
56.4672 -11.815
56.49535 -11.815
56.52643 -11.815
56.55275 -11.815
56.58124 -11.815
56.60902 -11.815
56.63628 -11.815
56.66566 -11.815
56.69365 -11.815
56.72134 -11.815
56.74846 -11.815
56.77497 -11.815
56.80222 -11.815
56.83013 -11.815
56.86793 -11.815
56.89637 -11.815
56.92435 -11.815
56.95281 -11.815
56.98783 -11.815
57.01354 -11.815
57.0423 -11.815
57.07024 -11.815
57.09933 -11.815
57.12618 -11.815
57.15613 -11.815
57.18995 -11.815
57.21798 -11.815
57.246 -11.815
57.28486 -11.815
57.31443 -11.815
57.34129 -11.815
57.36922 -11.815
57.39774 -11.815
57.42566 -11.815
57.4546 -11.815
57.48161 -11.815
57.51588 -11.815
57.55416 -11.815
57.5825 -11.815
57.6088 -11.815
57.63723 -11.815
57.66535 -11.815
57.69295 -11.815
57.71949 -11.815
57.74908 -11.815
57.77757 -11.815
57.81142 -11.815
57.83807 -11.815
57.86576 -11.815
57.89391 -11.815
57.923 -11.815
57.95119 -11.815
57.9803 -11.815
58.01508 -11.815
58.04223 -11.815
58.07818 -11.815
58.10583 -11.815
58.13285 -11.815
58.16207 -11.815
58.18869 -11.815
58.2162 -11.815
58.24411 -11.815
58.27225 -11.815
58.29878 -11.815
58.32658 -11.815
58.35462 -11.815
58.38413 -11.815
58.41055 -11.815
58.44379 -11.815
58.4716 -11.815
58.4999 -11.815
58.52649 -11.815
58.55397 -11.815
58.58311 -11.815
58.61242 -11.815
58.63831 -11.815
58.66687 -11.815
58.69595 -11.815
58.72366 -11.815
58.75301 -11.815
58.78069 -11.815
58.80857 -11.815
58.83812 -11.815
58.86389 -11.815
58.89665 -11.815
58.92437 -11.815
58.95185 -11.815
58.97778 -11.815
59.01107 -11.815
59.03889 -11.815
59.06514 -11.815
59.09052 -11.815
59.1232 -11.815
59.15049 -11.815
59.17701 -11.815
59.20322 -11.815
59.23028 -11.815
59.26023 -11.815
59.28712 -11.815
59.31292 -11.815
59.34017 -11.815
59.36797 -11.815
59.39454 -11.815
59.42039 -11.815
59.4482 -11.815
59.47781 -11.815
59.50508 -11.815
59.5335 -11.815
59.56129 -11.815
59.58918 -11.815
59.61586 -11.815
59.64126 -11.815
59.66902 -11.815
59.70382 -11.815
59.73034 -11.815
59.75613 -11.815
59.78274 -11.815
59.80957 -11.815
59.83619 -11.815
59.8641 -11.815
59.89212 -11.815
59.92176 -11.815
59.94854 -11.815
59.97942 -11.815
60.00962 -11.815
60.03644 -11.815
60.0634 -11.815
60.08923 -11.815
60.11703 -11.815
60.14524 -11.815
60.17484 -11.815
60.20016 -11.815
60.22791 -11.815
60.25959 -11.815
60.28564 -11.815
60.31104 -11.815
60.33809 -11.815
60.36774 -11.815
60.39923 -11.815
60.42455 -11.815
60.45142 -11.815
60.47905 -11.815
60.50958 -11.815
60.5346 -11.815
60.56128 -11.815
60.59002 -11.815
60.61679 -11.815
60.64256 -11.815
60.67027 -11.815
60.698 -11.815
60.72434 -11.815
60.75066 -11.815
60.77849 -11.815
60.80784 -11.815
60.83464 -11.815
60.86617 -11.815
60.89492 -11.815
60.9299 -11.815
60.95679 -11.815
60.99058 -11.815
61.01926 -11.815
61.04611 -11.815
61.07329 -11.815
61.09907 -11.815
61.1319 -11.815
61.16092 -11.815
61.18714 -11.815
61.21728 -11.815
61.24586 -11.815
61.27323 -11.815
61.30122 -11.815
61.32675 -11.815
61.35371 -11.815
61.38008 -11.815
61.40811 -11.815
61.4343 -11.815
61.463 -11.815
61.48972 -11.815
61.51627 -11.815
61.54229 -11.815
61.57001 -11.815
61.60687 -11.815
61.63255 -11.815
61.65828 -11.815
61.68738 -11.815
61.71459 -11.815
61.74098 -11.815
61.76729 -11.815
61.79512 -11.815
61.82299 -11.815
61.86054 -11.815
61.88836 -11.815
61.92224 -11.815
61.94991 -11.815
61.98182 -11.815
62.00764 -11.815
62.03449 -11.815
62.06118 -11.815
62.08938 -11.815
62.1228 -11.815
62.15061 -11.815
62.17748 -11.815
62.20364 -11.815
62.22984 -11.815
62.25823 -11.815
62.2848 -11.815
62.31255 -11.815
62.33796 -11.815
62.36444 -11.815
62.39157 -11.815
62.42056 -11.815
62.44632 -11.815
62.48169 -11.815
62.50887 -11.815
62.53723 -11.815
62.56448 -11.815
62.59674 -11.815
62.62415 -11.815
62.65176 -11.815
62.6784 -11.815
62.70572 -11.815
62.73344 -11.815
62.76308 -11.815
62.78862 -11.815
62.81631 -11.815
62.84338 -11.815
62.87014 -11.815
62.89588 -11.815
62.92277 -11.815
62.94938 -11.815
62.97791 -11.815
63.00455 -11.815
63.03569 -11.815
63.06291 -11.815
63.08964 -11.815
63.11513 -11.815
63.14183 -11.815
63.16866 -11.815
63.19686 -11.815
63.22232 -11.815
63.24995 -11.815
63.27645 -11.815
63.30527 -11.815
63.33092 -11.815
63.3577 -11.815
63.38572 -11.815
63.41401 -11.815
63.44077 -11.815
63.46854 -11.815
63.49728 -11.815
63.52362 -11.815
63.54985 -11.815
63.57768 -11.815
63.60508 -11.815
63.63335 -11.815
63.65929 -11.815
63.68709 -11.815
63.71476 -11.815
63.74168 -11.815
63.76722 -11.815
63.80074 -11.815
63.82755 -11.815
63.85594 -11.815
63.88408 -11.815
63.91161 -11.815
63.93921 -11.815
63.96711 -11.815
63.99323 -11.815
64.021 -11.815
64.04812 -11.815
64.07735 -11.815
64.10591 -11.815
64.13319 -11.815
64.15954 -11.815
64.18582 -11.815
64.21217 -11.815
64.24052 -11.815
64.26691 -11.815
64.29497 -11.815
64.32114 -11.815
64.34824 -11.815
64.37546 -11.815
64.40195 -11.815
64.42773 -11.815
64.45412 -11.815
64.481 -11.815
64.50876 -11.815
64.53498 -11.815
64.56751 -11.815
64.59496 -11.815
64.62121 -11.815
64.64671 -11.815
64.67786 -11.815
64.7052 -11.815
64.73862 -11.815
64.76379 -11.815
64.79049 -11.815
64.81839 -11.815
64.84484 -11.815
64.8705 -11.815
64.89774 -11.815
64.9257 -11.815
64.9533 -11.815
64.98008 -11.815
65.00697 -11.815
65.03736 -11.815
65.06969 -11.815
65.0953 -11.815
65.12826 -11.815
65.15607 -11.815
65.18275 -11.815
65.20856 -11.815
65.23669 -11.815
65.26421 -11.815
65.29025 -11.815
65.31689 -11.815
65.35142 -11.815
65.38244 -11.815
65.40923 -11.815
65.43465 -11.815
65.46513 -11.815
65.50134 -11.815
65.52748 -11.815
65.55283 -11.815
65.58198 -11.815
65.61092 -11.815
65.64157 -11.815
65.66748 -11.815
65.70056 -11.815
65.72898 -11.815
65.75827 -11.815
65.78614 -11.815
65.81333 -11.815
65.84017 -11.815
65.86651 -11.815
65.89337 -11.815
65.92155 -11.815
65.95484 -11.815
65.98088 -11.815
66.00803 -11.815
66.03503 -11.815
66.06176 -11.815
66.08904 -11.815
66.12094 -11.815
66.14874 -11.815
66.1763 -11.815
66.20343 -11.815
66.22999 -11.815
66.25745 -11.815
66.28499 -11.815
66.31396 -11.815
66.33972 -11.815
66.36757 -11.815
66.39579 -11.815
66.4233 -11.815
66.451 -11.815
66.47953 -11.815
66.50718 -11.815
66.53468 -11.815
66.56537 -11.815
66.59851 -11.815
66.62589 -11.815
66.65466 -11.815
66.68039 -11.815
66.708 -11.815
66.74488 -11.815
66.77135 -11.815
66.79726 -11.815
66.82979 -11.815
66.85854 -11.815
66.88491 -11.815
66.90997 -11.815
66.93725 -11.815
66.96547 -11.815
66.99146 -11.815
67.01715 -11.815
67.04494 -11.815
67.07377 -11.815
67.1009 -11.815
67.13578 -11.815
67.17268 -11.815
67.19934 -11.815
67.22564 -11.815
67.25203 -11.815
67.28138 -11.815
67.30789 -11.815
67.33405 -11.815
67.35992 -11.815
67.38738 -11.815
67.4148 -11.815
67.44169 -11.815
67.46712 -11.815
67.49603 -11.815
67.52334 -11.815
67.54999 -11.815
67.57671 -11.815
67.60448 -11.815
67.63268 -11.815
67.66605 -11.815
67.6927 -11.815
67.72256 -11.815
67.75016 -11.815
67.78084 -11.815
67.8061 -11.815
67.83356 -11.815
67.86112 -11.815
67.8878 -11.815
67.91306 -11.815
67.94149 -11.815
67.96967 -11.815
67.99627 -11.815
68.0218 -11.815
68.05715 -11.815
68.08632 -11.815
68.11321 -11.815
68.14136 -11.815
68.16865 -11.815
68.19561 -11.815
68.22215 -11.815
68.24827 -11.815
68.28309 -11.815
68.30967 -11.815
68.33636 -11.815
68.36426 -11.815
68.39244 -11.815
68.4204 -11.815
68.44713 -11.815
68.47248 -11.815
68.5043 -11.815
68.53108 -11.815
68.55678 -11.815
68.58645 -11.815
68.61333 -11.815
68.64354 -11.815
68.67011 -11.815
68.69707 -11.815
68.72498 -11.815
68.76416 -11.815
68.79179 -11.815
68.81668 -11.815
68.84843 -11.815
68.87734 -11.815
68.90353 -11.815
68.93169 -11.815
68.95961 -11.815
68.98824 -11.815
69.01603 -11.815
69.0425 -11.815
69.07016 -11.815
69.09776 -11.815
69.12471 -11.815
69.15056 -11.815
69.17801 -11.815
69.20467 -11.815
69.23273 -11.815
69.26093 -11.815
69.2887 -11.815
69.31965 -11.815
69.34653 -11.815
69.37212 -11.815
69.40221 -11.815
69.42921 -11.815
69.46358 -11.815
69.48973 -11.815
69.51738 -11.815
69.54446 -11.815
69.57504 -11.815
69.61167 -11.815
69.63853 -11.815
69.67858 -11.815
69.70512 -11.815
69.73054 -11.815
69.75832 -11.815
69.79368 -11.815
69.81999 -11.815
69.84866 -11.815
69.87766 -11.815
69.90487 -11.815
69.93154 -11.815
69.95754 -11.815
69.98689 -11.815
70.01458 -11.815
70.04152 -11.815
70.06746 -11.815
70.10081 -11.815
70.12862 -11.815
70.16692 -11.815
70.19334 -11.815
70.22086 -11.815
70.24842 -11.815
70.2746 -11.815
70.30189 -11.815
70.32882 -11.815
70.35598 -11.815
70.38332 -11.815
70.40909 -11.815
70.43623 -11.815
70.46499 -11.815
70.49146 -11.815
70.51936 -11.815
70.54781 -11.815
70.57498 -11.815
70.60086 -11.815
70.62612 -11.815
70.65276 -11.815
70.68077 -11.815
70.70766 -11.815
70.73503 -11.815
70.76234 -11.815
70.79382 -11.815
70.81995 -11.815
70.84557 -11.815
70.87355 -11.815
70.90683 -11.815
70.93336 -11.815
70.96148 -11.815
70.98953 -11.815
71.01625 -11.815
71.04288 -11.815
71.06882 -11.815
71.104 -11.815
71.13111 -11.815
71.15948 -11.815
71.19535 -11.815
71.22197 -11.815
71.24945 -11.815
71.27621 -11.815
71.3026 -11.815
71.33304 -11.815
71.36081 -11.815
71.38947 -11.815
71.4151 -11.815
71.4418 -11.815
71.46893 -11.815
71.49982 -11.815
71.52594 -11.815
71.55794 -11.815
71.5871 -11.815
71.61481 -11.815
71.64842 -11.815
71.67626 -11.815
71.70823 -11.815
71.73431 -11.815
71.76022 -11.815
71.78833 -11.815
71.82059 -11.815
71.84692 -11.815
71.87268 -11.815
71.90185 -11.815
71.93265 -11.815
71.95942 -11.815
71.98497 -11.815
72.01183 -11.815
72.04037 -11.815
72.06665 -11.815
72.09291 -11.815
72.12045 -11.815
72.14843 -11.815
72.17535 -11.815
72.20166 -11.815
72.23346 -11.815
72.26129 -11.815
72.28718 -11.815
72.31372 -11.815
72.34083 -11.815
72.37264 -11.815
72.39893 -11.815
72.42405 -11.815
72.45104 -11.815
72.48096 -11.815
72.50802 -11.815
72.53418 -11.815
72.56463 -11.815
72.5929 -11.815
72.61952 -11.815
72.64529 -11.815
72.67212 -11.815
72.70047 -11.815
72.72717 -11.815
72.75276 -11.815
72.78005 -11.815
72.8081 -11.815
72.83382 -11.815
72.85905 -11.815
72.88696 -11.815
72.91532 -11.815
72.94272 -11.815
72.96894 -11.815
72.99616 -11.815
73.02316 -11.815
73.04972 -11.815
73.07584 -11.815
73.10966 -11.815
73.13902 -11.815
73.17851 -11.815
73.20408 -11.815
73.23074 -11.815
73.25814 -11.815
73.285 -11.815
73.31133 -11.815
73.3399 -11.815
73.36723 -11.815
73.39417 -11.815
73.42074 -11.815
73.4472 -11.815
73.4741 -11.815
73.50008 -11.815
73.52532 -11.815
73.55478 -11.815
73.58254 -11.815
73.61044 -11.815
73.63681 -11.815
73.66484 -11.815
73.69217 -11.815
73.71838 -11.815
73.74522 -11.815
73.77369 -11.815
73.80169 -11.815
73.83293 -11.815
73.85848 -11.815
73.8889 -11.815
73.91538 -11.815
73.9416 -11.815
73.9705 -11.815
73.99928 -11.815
74.02819 -11.815
74.05454 -11.815
74.08043 -11.815
74.10773 -11.815
74.13477 -11.815
74.16098 -11.815
74.18733 -11.815
74.21613 -11.815
74.2425 -11.815
74.26913 -11.815
74.29584 -11.815
74.32284 -11.815
74.35006 -11.815
74.37682 -11.815
74.40293 -11.815
74.43189 -11.815
74.45972 -11.815
74.49493 -11.815
74.52045 -11.815
74.54884 -11.815
74.58112 -11.815
74.6076 -11.815
74.63519 -11.815
74.66187 -11.815
74.68855 -11.815
74.71531 -11.815
74.74261 -11.815
74.76993 -11.815
74.79753 -11.815
74.82394 -11.815
74.85119 -11.815
74.87901 -11.815
74.90602 -11.815
74.93188 -11.815
74.9577 -11.815
74.98573 -11.815
75.01318 -11.815
75.04029 -11.815
75.0676 -11.815
75.0976 -11.815
75.12447 -11.815
75.15121 -11.815
75.17878 -11.815
75.20641 -11.815
75.23357 -11.815
75.26033 -11.815
75.29108 -11.815
75.31931 -11.815
75.34743 -11.815
75.37913 -11.815
75.40594 -11.815
75.43319 -11.815
75.46091 -11.815
75.48837 -11.815
75.51406 -11.815
75.54109 -11.815
75.56858 -11.815
75.59441 -11.815
75.62068 -11.815
75.65163 -11.815
75.67884 -11.815
75.70625 -11.815
75.73206 -11.815
75.75958 -11.815
75.7878 -11.815
75.81781 -11.815
75.84319 -11.815
75.8709 -11.815
75.90284 -11.815
75.93563 -11.815
75.9644 -11.815
75.99624 -11.815
76.02309 -11.815
76.04942 -11.815
76.07731 -11.815
76.10525 -11.815
76.13421 -11.815
76.16051 -11.815
76.18649 -11.815
76.21383 -11.815
76.26217 -11.815
76.28886 -11.815
76.31492 -11.815
76.34351 -11.815
76.37164 -11.815
76.39851 -11.815
76.42676 -11.815
76.4544 -11.815
76.48216 -11.815
76.50958 -11.815
76.53601 -11.815
76.57065 -11.815
76.59759 -11.815
76.62464 -11.815
76.65028 -11.815
76.67773 -11.815
76.70422 -11.815
76.73032 -11.815
76.7557 -11.815
76.78403 -11.815
76.81229 -11.815
76.84609 -11.815
76.87218 -11.815
76.91048 -11.815
76.94041 -11.815
76.96722 -11.815
76.99467 -11.815
77.02213 -11.815
77.05363 -11.815
77.08066 -11.815
77.10747 -11.815
77.13501 -11.815
77.16232 -11.815
77.19618 -11.815
77.2229 -11.815
77.25006 -11.815
77.27728 -11.815
77.30737 -11.815
77.33359 -11.815
77.3628 -11.815
77.39013 -11.815
77.41672 -11.815
77.44441 -11.815
77.47193 -11.815
77.50494 -11.815
77.53069 -11.815
77.55756 -11.815
77.59004 -11.815
77.61758 -11.815
77.65103 -11.815
77.67616 -11.815
77.70293 -11.815
77.73012 -11.815
77.75599 -11.815
77.7813 -11.815
77.80873 -11.815
77.83662 -11.815
77.86511 -11.815
77.89102 -11.815
77.91901 -11.815
77.94712 -11.815
77.97443 -11.815
78.00615 -11.815
78.03445 -11.815
78.06178 -11.815
78.0909 -11.815
78.12478 -11.815
78.15984 -11.815
78.18617 -11.815
78.21228 -11.815
78.23742 -11.815
78.26498 -11.815
78.29846 -11.815
78.32477 -11.815
78.34987 -11.815
78.38107 -11.815
78.40855 -11.815
78.43457 -11.815
78.45997 -11.815
78.48632 -11.815
78.5145 -11.815
78.54111 -11.815
78.5664 -11.815
78.59358 -11.815
78.62045 -11.815
78.64679 -11.815
78.67268 -11.815
78.7005 -11.815
78.73212 -11.815
78.75867 -11.815
78.78505 -11.815
78.81215 -11.815
78.8401 -11.815
78.86657 -11.815
78.89308 -11.815
78.92139 -11.815
78.9501 -11.815
78.97704 -11.815
79.00338 -11.815
79.03209 -11.815
79.05865 -11.815
79.08575 -11.815
79.11526 -11.815
79.15255 -11.815
79.18156 -11.815
79.20797 -11.815
79.23848 -11.815
79.26568 -11.815
79.29259 -11.815
79.31863 -11.815
79.34441 -11.815
79.37109 -11.815
79.39957 -11.815
79.43411 -11.815
79.46126 -11.815
79.48853 -11.815
79.5151 -11.815
79.54153 -11.815
79.56777 -11.815
79.59502 -11.815
79.62466 -11.815
79.652 -11.815
79.67844 -11.815
79.70596 -11.815
79.73589 -11.815
79.76266 -11.815
79.7894 -11.815
79.82181 -11.815
79.85081 -11.815
79.87661 -12.24
79.91058 -12.24
79.94359 -12.58
79.97546 -12.92
80.00706 -12.92
80.03208 -14.45
80.06243 -14.45
80.09073 -15.555
80.12787 -17.425
80.15392 -17.425
80.18132 -18.53
80.20875 -18.53
80.23493 -19.975
80.26453 -19.975
80.29679 -20.4
80.32383 -22.27
80.35065 -22.27
80.37613 -23.715
80.40258 -23.715
80.42997 -24.82
80.45615 -24.82
80.48426 -25.925
80.51142 -25.925
80.53957 -27.455
80.56683 -27.455
80.59237 -28.9
80.62006 -29.325
80.64659 -29.325
80.68166 -30.77
80.70917 -30.77
80.74448 -31.535
80.77792 -32.64
80.80451 -32.64
80.8316 -33.405
80.87115 -34.51
80.89917 -34.51
80.92886 -35.275
80.95457 -35.275
80.98246 -37.485
81.00964 -37.485
81.03602 -39.355
81.06293 -39.355
81.09125 -40.46
81.11794 -41.905
81.14672 -41.905
81.17252 -43.01
81.20021 -43.01
81.22733 -44.115
81.25438 -44.115
81.28043 -46.41
81.30806 -46.41
81.33978 -46.75
81.36883 -48.62
81.39485 -48.62
81.42304 -50.065
81.45039 -50.065
81.4772 -51.17
81.50351 -51.17
81.53111 -51.595
81.5592 -51.595
81.58981 -52.7
81.62101 -53.465
81.64884 -53.465
81.67611 -54.145
81.70856 -54.145
81.73414 -54.57
81.76248 -54.57
81.7934 -55.25
81.8201 -55.675
81.84685 -55.675
81.8748 -55.675
81.90228 -55.675
81.92918 -55.675
81.96352 -55.675
81.99313 -55.675
82.01992 -55.675
82.04697 -55.675
82.07382 -55.675
82.10135 -55.675
82.12808 -55.675
82.15485 -55.675
82.18517 -55.675
82.21954 -55.675
82.24653 -55.675
82.27264 -55.675
82.29776 -55.675
82.32537 -55.675
82.35326 -55.675
82.37983 -55.675
82.4072 -55.675
82.43657 -55.675
82.46392 -55.675
82.49033 -55.675
82.51615 -55.675
82.54391 -55.675
82.57103 -55.675
82.59753 -55.675
82.6228 -55.675
82.65182 -55.675
82.68104 -55.675
82.70768 -55.675
82.73438 -55.675
82.76409 -55.675
82.79132 -55.675
82.81892 -55.675
82.84463 -55.675
82.87514 -55.675
82.90578 -55.675
82.93493 -55.675
82.96059 -55.675
82.98796 -55.675
83.0147 -55.675
83.04809 -55.675
83.07668 -55.675
83.11391 -55.675
83.14184 -55.675
83.1685 -55.675
83.19379 -55.675
83.2211 -55.675
83.24843 -55.675
83.2781 -55.675
83.30788 -55.675
83.33537 -55.675
83.36229 -55.675
83.38873 -55.675
83.41407 -55.675
83.44173 -55.675
83.47263 -55.675
83.51181 -55.675
83.53728 -55.675
83.56434 -55.675
83.59098 -55.675
83.61694 -55.675
83.64274 -55.675
83.67052 -55.675
83.70415 -55.675
83.73231 -55.675
83.75751 -55.675
83.79181 -55.675
83.82201 -55.675
83.84818 -55.675
83.88402 -55.675
83.91154 -55.675
83.94131 -55.675
83.96909 -55.675
83.99544 -55.675
84.02267 -55.675
84.04939 -55.675
84.07537 -55.675
84.10221 -55.675
84.12972 -55.675
84.16398 -55.675
84.19021 -55.675
84.21604 -55.675
84.24352 -55.675
84.27058 -55.675
84.29755 -55.675
84.32294 -55.675
84.35002 -55.675
84.37905 -55.675
84.40674 -55.675
84.43265 -55.675
84.46117 -55.675
84.49541 -55.675
84.52279 -55.675
84.55666 -55.675
84.58643 -55.675
84.61387 -55.675
84.64405 -55.675
84.66914 -55.675
84.69669 -55.675
84.72571 -55.675
84.75211 -55.675
84.77779 -55.675
84.80673 -55.675
84.83406 -55.675
84.86064 -55.675
84.88699 -55.675
84.92052 -55.675
84.94819 -55.675
84.97538 -55.675
85.01028 -55.675
85.03929 -55.675
85.06628 -55.675
85.09885 -55.675
85.12493 -55.675
85.15237 -55.675
85.17954 -55.675
85.20647 -55.675
85.23299 -55.675
85.26305 -55.675
85.2902 -55.675
85.31727 -55.675
85.34376 -55.675
85.37101 -55.675
85.39822 -55.675
85.42497 -55.675
85.45146 -55.675
85.48592 -55.675
85.51344 -55.675
85.54512 -55.675
85.57689 -55.675
85.60332 -55.675
85.63074 -55.675
85.65716 -55.675
85.68503 -55.675
85.71684 -55.675
85.74463 -55.675
85.78025 -55.675
85.80643 -55.675
85.83335 -55.675
85.86099 -55.675
85.88961 -55.675
85.9158 -55.675
85.94375 -55.675
85.97173 -55.675
85.99852 -55.675
86.02438 -55.675
86.05459 -55.675
86.08591 -55.675
86.11709 -55.675
86.14243 -55.675
86.16899 -55.675
86.19652 -55.675
86.22274 -55.675
86.24828 -55.675
86.27482 -55.675
86.30205 -55.675
86.33038 -55.675
86.35581 -55.675
86.38297 -55.675
86.41061 -55.675
86.43714 -55.675
86.46302 -55.675
86.49033 -55.675
86.5177 -55.675
86.54636 -55.675
86.57326 -55.675
86.6007 -55.675
86.62808 -55.675
86.655 -55.675
86.68085 -55.675
86.70824 -55.675
86.73788 -55.675
86.76669 -55.675
86.7935 -55.675
86.82095 -55.675
86.84843 -55.675
86.8756 -55.675
86.9015 -55.675
86.92809 -55.675
86.95939 -55.675
86.98869 -55.675
87.01852 -55.675
87.0548 -55.675
87.08281 -55.675
87.11813 -55.675
87.14411 -55.675
87.17136 -55.675
87.20654 -55.675
87.23261 -55.675
87.25843 -55.675
87.28741 -55.675
87.31387 -55.675
87.34161 -55.675
87.36844 -55.675
87.40156 -55.675
87.43012 -55.675
87.45618 -55.675
87.48142 -56.015
87.5086 -56.015
87.53671 -56.015
87.56378 -56.015
87.59006 -56.015
87.61734 -56.015
87.65139 -56.015
87.67775 -56.015
87.70339 -56.015
87.73128 -56.44
87.75871 -56.44
87.78563 -56.78
87.81178 -56.78
87.85095 -57.545
87.89171 -58.99
87.91865 -60.095
87.94466 -60.095
87.9744 -60.86
88.0022 -60.86
88.03056 -62.305
88.05652 -62.305
88.08528 -63.07
88.11224 -63.07
88.14836 -64.94
88.17379 -67.575
88.20181 -67.575
88.22948 -69.785
88.26012 -69.785
88.28888 -72.335
88.31597 -72.335
88.34254 -74.63
88.36871 -78.71
88.39532 -78.71
88.42313 -80.92
88.45088 -80.92
88.47746 -82.025
88.50549 -82.025
88.53304 -85.765
88.55981 -85.765
88.58611 -87.635
88.61649 -87.635
88.64308 -90.185
88.67014 -92.055
88.69643 -92.055
88.73151 -93.925
88.75848 -93.925
88.78593 -95.03
88.81296 -95.03
88.83884 -96.135
88.86629 -96.135
88.89444 -98.345
88.92258 -98.77
88.95152 -98.77
88.98056 -99.875
89.01506 -99.875
89.04147 -100.215
89.06744 -100.215
89.09463 -100.98
89.1216 -102.085
89.14787 -102.085
89.17831 -102.425
89.20576 -102.425
89.23402 -102.85
89.26147 -102.85
89.28824 -102.85
89.31561 -102.85
89.34288 -102.85
89.3699 -102.85
89.39763 -102.85
89.42509 -102.425
89.45472 -102.425
89.48124 -102.425
89.51298 -102.425
89.5415 -101.745
89.56878 -101.745
89.59586 -101.745
89.62367 -101.745
89.65041 -101.745
89.67743 -101.745
89.70408 -101.745
89.73045 -102.085
89.75791 -102.085
89.78545 -103.53
89.81452 -103.53
89.8432 -104.295
89.87013 -104.72
89.89763 -104.72
89.92464 -105.4
89.95025 -105.4
89.97863 -106.165
90.00751 -106.165
90.03427 -106.165
90.06297 -106.165
90.09026 -106.505
90.11771 -106.505
90.1446 -106.505
90.1702 -106.505
90.19793 -106.505
90.22581 -106.165
90.25352 -106.165
90.28111 -106.505
90.3082 -106.505
90.33581 -106.505
90.363 -106.505
90.38866 -106.93
90.41583 -106.93
90.44405 -107.27
90.47647 -107.27
90.51028 -107.27
90.53699 -107.61
90.56568 -107.61
90.59205 -107.61
90.6181 -107.61
90.64575 -107.61
90.67345 -107.61
90.70624 -107.61
90.73463 -107.61
90.76181 -107.61
90.79136 -107.61
90.83029 -107.61
90.85674 -107.61
90.88888 -107.61
90.91568 -107.61
90.9436 -107.61
90.9698 -107.61
90.9978 -107.61
91.03017 -107.61
91.05639 -107.61
91.08839 -107.61
91.11596 -107.61
91.14526 -107.61
91.17387 -107.61
91.20198 -107.61
91.23026 -108.035
91.25767 -108.035
91.28445 -108.375
91.31007 -108.375
91.3371 -108.8
91.36633 -108.8
91.39628 -109.14
91.42247 -109.48
91.44987 -109.48
91.47737 -109.48
91.50341 -109.48
91.52919 -109.905
91.55693 -109.905
91.59769 -109.905
91.62473 -110.245
91.65036 -110.245
91.67786 -110.245
91.70795 -110.245
91.73396 -110.585
91.75938 -110.585
91.78855 -111.01
91.81541 -111.01
91.84196 -111.35
91.86925 -111.775
91.89925 -111.775
91.92623 -112.115
91.95283 -112.115
91.97857 -112.88
92.00894 -112.88
92.03666 -113.22
92.06389 -113.22
92.08966 -113.56
92.12154 -113.985
92.14828 -113.985
92.17467 -114.325
92.20445 -114.325
92.24261 -114.75
92.27687 -115.09
92.30363 -115.09
92.33005 -115.09
92.35691 -115.09
92.38436 -115.09
92.41519 -115.09
92.44344 -115.09
92.47101 -115.09
92.50329 -115.09
92.53091 -115.09
92.559 -115.09
92.58619 -115.09
92.61356 -115.09
92.6411 -115.09
92.67012 -115.09
92.69819 -115.09
92.72622 -115.09
92.75476 -115.09
92.78095 -115.09
92.80855 -115.09
92.83559 -115.09
92.86213 -115.09
92.89069 -115.09
92.92097 -115.09
92.94794 -115.09
92.97712 -115.09
93.00381 -115.09
93.03442 -115.09
93.06179 -115.09
93.08827 -115.09
93.11768 -115.09
93.1464 -115.09
93.17417 -115.09
93.20084 -115.09
93.22685 -115.09
93.25951 -115.09
93.28757 -115.09
93.31384 -115.09
93.34112 -115.09
93.36834 -115.09
93.39873 -115.09
93.42513 -115.09
93.45287 -115.09
93.48045 -115.09
93.51423 -115.09
93.5425 -115.09
93.56808 -115.09
93.60163 -115.09
93.62849 -115.09
93.65662 -115.09
93.68182 -115.09
93.70864 -115.09
93.73589 -115.09
93.76509 -115.09
93.79372 -115.09
93.82063 -115.09
93.84827 -115.09
93.87593 -115.09
93.90598 -115.09
93.93319 -115.09
93.96368 -115.09
93.99894 -115.09
94.03572 -115.09
94.06673 -115.09
94.10235 -115.09
94.14507 -115.09
94.17252 -115.09
94.20546 -115.09
94.23629 -115.09
94.27023 -115.09
94.29886 -115.09
94.32851 -115.09
94.35671 -115.09
94.38445 -115.09
94.41227 -115.09
94.4402 -115.09
94.47358 -115.09
94.50671 -115.09
94.53207 -115.09
94.55907 -115.09
94.58896 -115.09
94.61879 -115.09
94.64521 -115.09
94.673 -115.09
94.70047 -115.09
94.72707 -115.09
94.76325 -115.09
94.80008 -115.09
94.82931 -115.09
94.85511 -115.09
94.88109 -115.09
94.90875 -115.09
94.93671 -115.09
94.96963 -115.09
94.99585 -115.09
95.02477 -115.09
95.05392 -115.09
95.08131 -115.09
95.10718 -115.09
95.13457 -115.09
95.16146 -115.09
95.18835 -115.09
95.21413 -115.09
95.24211 -115.09
95.27117 -115.09
95.29775 -115.09
95.33039 -115.43
95.35729 -115.43
95.39351 -115.43
95.41929 -115.43
95.44519 -115.43
95.48248 -115.855
95.50945 -115.855
95.53675 -116.195
95.56379 -116.195
95.5974 -116.195
95.62428 -116.535
95.65111 -116.535
95.67897 -116.96
95.70632 -116.96
95.73406 -116.96
95.76102 -116.96
95.78764 -117.64
95.81569 -117.64
95.84379 -118.065
95.88291 -118.065
95.91078 -118.065
95.938 -118.405
95.96548 -118.405
95.99186 -118.83
96.01774 -118.83
96.04426 -119.17
96.07109 -119.51
96.09989 -119.51
96.12855 -119.51
96.1566 -119.51
96.1835 -119.51
96.2093 -119.51
96.23602 -119.935
96.26299 -119.935
96.28992 -120.275
96.32494 -120.615
96.35419 -120.615
96.386 -120.615
96.41274 -120.615
96.43904 -121.04
96.46942 -121.38
96.49969 -121.38
96.52759 -121.805
96.55706 -121.805
96.58717 -122.145
96.62053 -122.485
96.65179 -122.485
96.67822 -123.59
96.70329 -123.59
96.73087 -124.355
96.76054 -124.355
96.78767 -124.695
96.82411 -125.46
96.85082 -125.46
96.87823 -126.225
96.90807 -126.225
96.9416 -126.99
96.98081 -127.67
97.00751 -127.67
97.03407 -128.86
97.05998 -128.86
97.09116 -129.54
97.11903 -130.645
97.14922 -130.645
97.18056 -131.41
97.21075 -131.41
97.24086 -132.515
97.26738 -132.515
97.29369 -133.28
97.32077 -133.62
97.348 -133.62
97.3745 -134.045
97.40322 -134.045
97.43244 -134.045
97.46004 -134.045
97.48766 -134.045
97.51337 -134.045
97.54073 -134.045
97.56839 -134.045
97.59483 -134.045
97.62255 -134.045
97.6502 -134.045
97.67775 -134.045
97.71342 -134.045
97.74888 -134.045
97.77618 -134.045
97.80313 -134.045
97.83124 -134.045
97.85648 -134.045
97.88341 -134.045
97.91362 -134.045
97.93958 -134.045
97.96619 -134.045
97.99315 -134.045
98.02057 -134.045
98.05658 -134.045
98.08249 -134.045
98.11034 -134.045
98.13752 -134.045
98.16407 -134.045
98.19003 -134.045
98.22002 -134.045
98.24747 -134.045
98.27606 -134.045
98.30184 -134.045
98.32944 -134.045
98.35751 -134.045
98.384 -134.045
98.40935 -134.045
98.43645 -134.045
98.4636 -134.045
98.49184 -134.045
98.52477 -134.045
98.55477 -134.045
98.58405 -134.045
98.62354 -134.045
98.65501 -134.045
98.68236 -134.045
98.71102 -134.045
98.73683 -134.045
98.76227 -134.045
98.78928 -134.045
98.81662 -134.045
98.84354 -134.045
98.87364 -134.045
98.90082 -134.045
98.94137 -134.045
98.96786 -134.045
98.99332 -134.045
99.02464 -134.385
99.05158 -134.385
99.08085 -134.385
99.10708 -134.385
99.13885 -134.385
99.16634 -134.385
99.19386 -134.725
99.22018 -135.15
99.25079 -135.15
99.27993 -135.49
99.31551 -135.49
99.3439 -136.595
99.37228 -137.02
99.40071 -137.02
99.42719 -137.36
99.45417 -137.36
99.48683 -138.125
99.51472 -138.125
99.54231 -138.805
99.57072 -139.57
99.59892 -139.57
99.62762 -140.335
99.65481 -140.335
99.68743 -141.1
99.71648 -141.1
99.7472 -142.205
99.77802 -142.97
99.80865 -142.97
99.83593 -143.65
99.86679 -143.65
99.89711 -144.755
99.92273 -145.52
99.95086 -145.52
99.98067 -145.86
100.008 -145.86
100.0341 -146.625
100.0616 -146.625
100.0894 -147.73
100.1181 -148.155
100.1445 -148.155
100.1732 -148.835
100.2078 -148.835
100.2343 -149.6
100.2606 -149.6
100.2883 -150.365
100.3155 -150.365
100.3474 -151.13
100.3727 -151.47
100.4003 -151.47
100.4302 -151.81
100.4572 -151.81
100.483 -152.235
100.5107 -152.235
100.5384 -152.575
100.5666 -152.575
100.5917 -152.575
100.6196 -152.575
100.6498 -152.575
100.6769 -152.575
100.7027 -152.575
100.7298 -152.575
100.7573 -152.575
100.7938 -152.575
100.8189 -152.575
100.8464 -152.575
100.8753 -152.575
100.9015 -152.575
100.9274 -152.575
100.957 -152.575
100.9926 -152.575
101.0186 -152.575
101.045 -152.575
101.0718 -152.575
101.1016 -152.575
101.1286 -152.575
101.1544 -152.575
101.1891 -153
101.221 -153
101.2481 -153
101.2739 -153.34
101.3049 -153.34
101.3326 -153.68
101.359 -153.68
101.3953 -153.68
101.4221 -154.445
101.4497 -154.445
101.4758 -154.445
101.5036 -154.445
101.531 -155.21
101.5588 -155.21
101.5858 -155.55
101.6235 -155.89
101.6505 -155.89
101.6774 -156.315
101.7066 -156.315
101.732 -156.655
101.7594 -156.655
101.7876 -157.42
101.8144 -157.42
101.8413 -158.185
101.8691 -158.185
101.9053 -158.185
101.9355 -158.525
101.9622 -158.525
101.9905 -159.29
102.0167 -159.29
102.0435 -159.63
102.07 -160.055
102.0967 -160.055
102.1312 -161.16
102.1606 -161.16
102.186 -161.84
102.2141 -161.84
102.2437 -162.265
102.2731 -162.945
102.3026 -162.945
102.3298 -163.37
102.3566 -163.37
102.3865 -163.71
102.4129 -163.71
102.4407 -164.135
102.4681 -164.135
102.4951 -164.135
102.5244 -164.475
102.5512 -164.475
102.579 -164.475
102.6088 -164.475
102.6454 -164.475
102.6793 -164.475
102.706 -164.475
102.7325 -164.475
102.7581 -164.475
102.7856 -164.475
102.8197 -164.475
102.8481 -164.475
102.8809 -164.475
102.9077 -164.475
102.935 -164.815
102.9647 -164.815
102.9915 -165.24
103.022 -165.58
103.0491 -165.58
103.0759 -165.92
103.1021 -165.92
103.1293 -166.685
103.1574 -166.685
103.1848 -166.685
103.2235 -167.11
103.2535 -167.11
103.283 -167.79
103.31 -167.79
103.3442 -168.215
103.372 -168.555
103.3986 -168.555
103.4242 -169.32
103.4521 -169.32
103.4799 -169.66
103.508 -169.66
103.5349 -170.425
103.5632 -170.425
103.5915 -171.19
103.6186 -171.87
103.6453 -171.87
103.6791 -172.635
103.7065 -172.635
103.7337 -172.975
103.7653 -172.975
103.7909 -173.4
103.8183 -174.845
103.8455 -174.845
103.8813 -175.27
103.9072 -175.27
103.9344 -176.375
103.9706 -177.48
103.9973 -177.48
104.023 -178.585
104.0504 -178.585
104.0807 -179.69
104.109 -179.69
104.1392 -180.455
104.1693 -181.9
104.1967 -181.9
104.2313 -182.665
104.2587 -182.665
104.288 -183.77
104.3148 -183.77
104.341 -184.11
104.3663 -184.11
104.3934 -185.3
104.4206 -185.98
104.4471 -185.98
104.4738 -187.085
104.5033 -187.085
104.538 -187.51
104.5652 -187.51
104.5908 -187.51
104.6183 -187.51
104.6476 -187.51
104.6747 -187.51
104.7039 -187.51
104.7311 -187.51
104.7584 -187.51
104.7873 -187.085
104.8137 -187.085
104.8406 -186.405
104.8688 -185.64
104.9053 -185.64
104.9337 -184.875
104.964 -184.875
104.9911 -184.535
105.0176 -184.535
105.043 -183.005
105.0736 -181.9
105.1015 -181.9
105.1286 -180.455
105.1567 -180.455
105.1896 -178.925
105.2166 -178.925
105.2442 -177.82
105.2706 -177.055
105.2993 -177.055
105.3264 -175.61
105.359 -175.61
105.3953 -174.505
105.4224 -174.165
105.45 -174.165
105.479 -173.74
105.5054 -173.74
105.5369 -173.74
105.5668 -173.74
105.6016 -173.74
105.6323 -173.74
105.6649 -173.74
105.6927 -173.74
105.7198 -173.74
105.7455 -173.74
105.773 -173.74
105.8032 -173.74
105.8303 -173.74
105.8668 -173.74
105.8939 -173.74
105.9213 -174.165
105.9481 -174.165
105.9748 -174.505
106.0042 -174.505
106.0315 -174.845
106.0582 -174.845
106.0848 -175.61
106.1132 -175.61
106.1403 -175.95
106.1664 -175.95
106.1922 -175.95
106.223 -176.375
106.2561 -176.375
106.3044 -176.375
106.3372 -176.715
106.3642 -176.715
106.3924 -176.715
106.4213 -176.715
106.4471 -176.715
106.4745 -176.715
106.5025 -176.715
106.5292 -176.715
106.562 -176.715
106.5964 -176.715
106.6266 -176.715
106.6528 -176.715
106.6877 -176.715
106.7157 -176.715
106.749 -176.715
106.7764 -176.715
106.8044 -176.715
106.8335 -176.715
106.861 -176.715
106.8909 -176.715
106.9183 -176.715
106.9538 -177.055
106.9843 -177.055
107.0115 -177.055
107.04 -177.48
107.0741 -177.48
107.1107 -177.48
107.1467 -177.82
107.1724 -177.82
107.1989 -177.82
107.2265 -178.245
107.2565 -178.245
107.2829 -178.245
107.3108 -178.245
107.3383 -178.245
107.3653 -178.245
107.3915 -178.245
107.4297 -178.245
107.4585 -178.245
107.4854 -178.245
107.5112 -178.245
107.538 -178.245
107.5649 -178.245
107.5919 -178.245
107.6209 -178.245
107.6481 -178.245
107.6768 -178.245
107.7037 -178.245
107.7317 -178.245
107.7593 -178.245
107.7863 -178.245
107.8133 -178.245
107.8451 -178.245
107.8772 -178.245
107.9064 -178.245
107.9322 -178.245
107.9588 -178.245
107.9907 -177.82
108.018 -177.82
108.0439 -177.48
108.0692 -177.48
108.0965 -177.48
108.1267 -176.375
108.1543 -176.375
108.1797 -175.27
108.2119 -175.27
108.2393 -174.505
108.2719 -173.4
108.2977 -173.4
108.3381 -171.53
108.3658 -171.53
108.3921 -169.66
108.4227 -168.555
108.4539 -168.555
108.4807 -167.79
108.5082 -167.79
108.5383 -165.92
108.566 -165.92
108.5936 -165.24
108.6197 -164.475
108.6516 -164.475
108.6787 -163.71
108.7064 -163.71
108.7346 -162.265
108.7692 -161.84
108.796 -161.84
108.8237 -161.16
108.8554 -161.16
108.8869 -160.735
108.915 -160.735
108.9443 -160.055
108.9739 -159.29
109.0004 -159.29
109.0329 -158.865
109.0598 -158.865
109.0872 -158.865
109.1135 -158.865
109.1414 -158.865
109.1688 -158.525
109.1984 -158.525
109.225 -158.525
109.2538 -158.525
109.2811 -158.525
109.3078 -158.525
109.3349 -158.525
109.3688 -158.525
109.3966 -158.525
109.4263 -158.525
109.4518 -158.525
109.4852 -158.525
109.5132 -158.525
109.5451 -158.525
109.5707 -158.525
109.5992 -158.525
109.6292 -158.525
109.6562 -158.525
109.6924 -158.525
109.7202 -158.525
109.7605 -158.525
109.7867 -158.525
109.8124 -158.525
109.8423 -158.525
109.8695 -158.525
109.8969 -158.525
109.9229 -158.525
109.9507 -158.525
109.9781 -158.525
110.0055 -158.525
110.0381 -158.525
110.0678 -158.525
110.0948 -158.525
110.122 -158.525
110.1489 -158.525
110.1755 -158.525
110.2023 -158.525
110.2288 -158.525
110.2546 -158.525
110.2838 -158.525
110.3106 -158.525
110.3374 -158.525
110.3643 -158.525
110.3922 -158.525
110.4238 -158.525
110.4537 -158.525
110.4793 -158.525
110.5084 -158.525
110.5356 -158.865
110.5619 -158.865
110.5884 -158.865
110.616 -158.865
110.6428 -158.865
110.6698 -159.29
110.6977 -159.29
110.7317 -159.29
110.7594 -159.29
110.786 -159.63
110.8114 -159.63
110.8389 -159.63
110.8671 -159.63
110.8931 -160.055
110.9188 -160.055
110.9586 -160.055
110.9854 -160.055
111.0121 -160.055
111.0385 -160.055
111.0659 -160.055
111.1063 -160.055
111.1333 -160.055
111.1623 -160.055
111.189 -160.055
111.2244 -160.055
111.2505 -160.055
111.276 -160.055
111.3031 -160.055
111.3306 -160.055
111.3571 -160.055
111.3939 -160.055
111.421 -160.055
111.4494 -160.055
111.476 -160.055
111.5042 -160.055
111.5314 -160.055
111.5589 -160.055
111.5884 -160.055
111.6193 -160.055
111.6465 -160.055
111.6734 -160.055
111.7013 -160.055
111.7276 -160.055
111.7553 -160.055
111.7951 -160.055
111.8239 -160.055
111.8491 -160.055
111.876 -160.055
111.9038 -160.055
111.9304 -160.055
111.9596 -160.055
111.9975 -159.63
112.026 -159.63
112.0521 -159.63
112.0781 -159.29
112.106 -159.29
112.1331 -158.865
112.1605 -158.865
112.1952 -158.865
112.2225 -158.525
112.2565 -158.525
112.2823 -158.185
112.3083 -158.185
112.3355 -157.76
112.3627 -157.76
112.3889 -157.42
112.4153 -157.42
112.4427 -157.42
112.4725 -157.08
112.4989 -157.08
112.5244 -157.08
112.5519 -157.08
112.5804 -157.08
112.6098 -157.08
112.6358 -157.08
112.6653 -157.08
112.695 -157.08
112.722 -157.08
112.7482 -157.08
112.7757 -157.08
112.8071 -157.08
112.8357 -157.08
112.8612 -157.08
112.8893 -157.08
112.9206 -157.08
112.9475 -157.08
112.9749 -157.08
113.0046 -157.08
113.0319 -157.08
113.0597 -157.08
113.0852 -157.08
113.1132 -157.08
113.1466 -157.08
113.1725 -157.08
113.1981 -157.08
113.2248 -156.655
113.2532 -156.655
113.2796 -156.315
113.3054 -156.315
113.3323 -155.89
113.3621 -155.89
113.3893 -155.55
113.4154 -155.55
113.4425 -154.785
113.4699 -152.575
113.496 -152.575
113.5217 -151.81
113.5485 -151.81
113.5781 -151.13
113.607 -151.13
113.6321 -149.26
113.6596 -149.26
113.6869 -147.05
113.7173 -147.05
113.7429 -144.755
113.7713 -141.78
113.8046 -141.78
113.8388 -139.23
113.8644 -139.23
113.8917 -136.255
113.9242 -133.62
113.9499 -133.62
113.976 -131.07
114.006 -131.07
114.033 -129.54
114.0591 -129.54
114.0852 -127.33
114.1129 -127.33
114.1404 -125.46
114.167 -125.46
114.1946 -123.25
114.2244 -120.275
114.2509 -120.275
114.2773 -117.64
114.3027 -117.64
114.3294 -115.09
114.3567 -115.09
114.3831 -113.56
114.4138 -113.56
114.4509 -106.93
114.4774 -103.19
114.5037 -103.19
114.5291 -97.24
114.5563 -97.24
114.5884 -93.5
114.6151 -93.5
114.6436 -89.845
114.6718 -86.87
114.6995 -86.87
114.7293 -83.555
114.7549 -83.555
114.7822 -80.155
114.8199 -77.605
114.8482 -77.605
114.8743 -75.31
114.9074 -75.31
114.9362 -73.525
114.9629 -73.525
114.9883 -71.655
115.0151 -71.655
115.0425 -69.785
115.0789 -67.575
115.1046 -67.575
115.1315 -65.705
115.1591 -65.705
115.1905 -64.175
115.2161 -64.175
115.2435 -60.095
115.273 -55.25
115.3026 -55.25
115.3402 -53.805
115.3669 -53.805
115.4066 -48.195
115.4352 -41.905
115.4609 -41.905
115.4903 -38.25
115.5175 -38.25
115.5433 -31.11
115.5694 -29.325
115.6044 -29.325
115.6411 -24.055
115.6681 -24.055
115.6968 -18.87
115.7237 -13.685
115.75 -13.685
115.7761 -8.16
115.8023 -8.16
115.8296 -2.55
115.8574 -2.55
115.8845 0.68
115.9196 5.865
115.9464 5.865
115.9747 8.5
116.001 8.5
116.0291 15.895
116.0567 15.895
116.0865 20.4
116.1155 20.4
116.1417 22.27
116.1711 25.925
116.1985 25.925
116.2294 29.325
116.2555 29.325
116.2829 33.745
116.3123 33.745
116.3436 36.38
116.3697 37.825
116.3965 37.825
116.4247 41.14
116.458 41.14
116.4832 43.435
116.5098 43.435
116.5375 47.09
116.5665 47.09
116.5937 49.385
116.6201 50.49
116.6468 50.49
116.6726 53.805
116.6983 53.805
116.7252 57.885
116.754 57.885
116.7871 60.52
116.8129 60.52
116.8407 62.73
116.8798 65.705
116.9108 65.705
116.9373 70.125
116.969 71.23
116.9982 71.23
117.0293 74.205
117.0551 74.205
117.0821 78.285
117.1097 78.285
117.1364 82.79
117.162 82.79
117.1889 85.765
117.2198 86.87
117.2524 86.87
117.2781 89.845
117.305 89.845
117.3314 93.925
117.3576 93.925
117.3837 96.475
117.4112 96.475
117.441 100.555
117.468 100.555
117.4935 105.06
117.5264 107.61
117.5544 107.61
117.5817 109.48
117.6087 109.48
117.6452 112.115
117.6745 114.75
117.7013 114.75
117.7284 117.64
117.758 117.64
117.785 120.275
117.8115 120.275
117.8371 125.46
117.8698 129.2
117.9006 129.2
117.9288 132.175
117.9546 132.175
117.9847 135.915
118.0232 137.7
118.0492 137.7
118.0755 143.31
118.1062 143.31
118.1339 147.39
118.1668 147.39
118.1922 151.13
118.2195 153
118.2473 153
118.2793 157.08
118.3082 157.08
118.3388 162.945
118.3656 162.945
118.3917 169.32
118.4181 169.32
118.4455 172.975
118.4756 176.715
118.5022 176.715
118.5306 181.56
118.5589 181.56
118.5866 187.085
118.6131 187.085
118.6389 190.485
118.6669 190.485
118.6966 192.695
118.7231 195.67
118.7514 195.67
118.7799 197.115
118.8077 197.115
118.8452 201.96
118.871 204.17
118.8979 204.17
118.9254 206.04
118.9538 206.04
118.9802 206.805
119.0077 206.805
119.0348 208.675
119.0615 208.675
119.0887 211.225
119.1169 211.225
119.1445 212.755
119.1743 213.86
119.2007 213.86
119.2286 215.305
119.2565 215.305
119.2887 215.73
119.3151 215.73
119.3424 217.175
119.3693 218.28
119.3993 218.28
119.4259 218.705
119.4528 218.705
119.4805 219.045
119.5076 219.045
119.5392 219.81
119.5664 219.81
119.5958 220.15
119.6251 220.15
119.6507 220.15
119.6778 220.15
119.7071 220.15
119.7364 220.15
119.7622 220.15
119.7896 220.15
119.8175 220.15
119.8454 220.15
119.8722 220.15
119.9011 220.15
119.9355 220.575
119.9658 220.575
119.9921 221.255
120.0198 222.02
120.05 222.02
120.079 223.125
120.1052 223.125
120.132 224.655
120.1622 224.655
120.1884 226.1
120.2136 226.1
120.2408 228.31
120.2728 229.84
120.3017 229.84
120.3273 232.39
120.3536 232.39
120.3806 234.26
120.4084 234.26
120.434 235.365
120.4614 235.365
120.4926 238.34
120.5189 241.74
120.5448 241.74
120.5722 243.61
120.5996 243.61
120.6263 244.715
120.6522 244.715
120.6795 245.395
120.7091 245.395
120.736 247.265
120.7631 247.265
120.8013 248.795
120.828 251.005
120.8598 251.005
120.8872 252.45
120.9182 252.45
120.9457 253.555
120.9736 255.425
121.0006 255.425
121.0279 256.19
121.0584 256.19
121.0922 257.72
121.1234 260.27
121.1509 260.27
121.18 260.61
121.2111 260.61
121.2438 262.48
121.2706 262.48
121.298 263.245
121.3281 264.775
121.3548 264.775
121.39 266.22
121.4176 266.22
121.4435 268.855
121.469 268.855
121.4968 270.3
121.5297 271.405
121.5593 271.405
121.5855 271.83
121.6127 271.83
121.6404 272.17
121.6669 272.17
121.6927 272.17
121.7202 272.17
121.7524 272.17
121.7813 272.17
121.8071 272.17
121.8345 272.17
121.8626 272.17
121.8947 272.17
121.933 272.51
121.9609 272.51
121.9911 272.51
122.019 272.51
122.0441 272.935
122.0718 273.275
122.0995 273.275
122.1356 273.615
122.1607 273.615
122.1873 274.38
122.2205 274.38
122.2476 275.145
122.282 275.485
122.3092 275.485
122.3361 275.91
122.3633 275.91
122.3951 276.59
122.4246 277.015
122.4527 277.015
122.4795 277.355
122.5055 277.355
122.533 277.695
122.5703 277.695
122.5968 278.12
122.6286 278.885
122.6559 278.885
122.6828 279.225
122.7112 279.225
122.737 279.565
122.7648 279.565
122.7938 280.33
122.8203 280.33
122.8483 281.095
122.8755 282.2
122.903 282.2
122.9294 283.305
122.9549 283.305
122.9829 284.41
123.0103 284.41
123.0368 285.515
123.0682 285.515
123.096 286.62
123.1242 288.49
123.1607 288.49
123.1864 289.595
123.2138 289.595
123.241 290.36
123.2706 290.36
123.2965 291.125
123.3234 292.23
123.3503 292.23
123.3761 292.57
123.4014 292.57
123.428 292.995
123.4548 292.995
123.4837 293.335
123.5096 293.335
123.5377 293.335
123.5648 293.335
123.5915 293.335
123.6185 293.335
123.6526 293.335
123.6888 293.335
123.7169 293.335
123.7428 293.335
123.7711 293.335
123.7992 293.335
123.8257 293.335
123.8597 293.335
123.887 293.335
123.9221 293.335
123.9507 293.335
123.9768 292.995
124.0038 292.995
124.0417 292.995
124.0682 292.995
124.0957 292.995
124.1235 292.57
124.1525 292.57
124.1782 292.23
124.2052 292.23
124.2353 292.23
124.2684 292.23
124.2944 291.465
124.32 291.465
124.3479 291.125
124.3816 290.7
124.4197 290.7
124.4558 290.02
124.4835 289.255
124.5187 289.255
124.545 288.915
124.5705 288.915
124.6002 288.49
124.6279 288.15
124.6547 288.15
124.6814 287.725
124.7093 287.725
124.7369 287.385
124.7633 287.385
124.7897 287.045
124.8194 287.045
124.8478 286.62
124.8746 286.62
124.9013 286.62
124.9286 286.62
124.9558 286.62
124.9839 286.62
125.0101 286.62
125.0403 286.62
125.0681 286.62
125.0949 286.62
125.1256 286.62
125.1536 286.62
125.1809 286.62
125.2135 286.62
125.2468 286.62
125.2745 287.045
125.3012 287.045
125.3274 287.385
125.3553 287.385
125.3825 287.725
125.4109 287.725
125.4375 288.15
125.4658 288.15
125.493 288.915
125.5204 288.915
125.5481 289.255
125.5748 289.595
125.6019 289.595
125.6292 290.02
125.6584 290.02
125.6861 290.36
125.7132 290.36
125.7411 290.7
125.7683 290.7
125.7953 291.125
125.8231 291.125
125.8514 291.125
125.8779 291.465
125.907 291.465
125.9359 291.805
125.964 291.805
125.9921 292.23
126.018 292.23
126.0451 292.23
126.0728 292.995
126.0996 292.995
126.1282 294.1
126.1561 294.1
126.1836 294.44
126.2102 294.44
126.2363 295.205
126.2656 295.205
126.3003 295.97
126.33 297.075
126.3558 297.075
126.3824 298.18
126.4096 298.18
126.436 299.285
126.4617 299.285
126.4884 299.625
126.5155 299.625
126.5443 300.73
126.5707 300.73
126.5976 301.835
126.6244 302.26
126.6506 302.26
126.6769 303.025
126.705 303.025
126.733 304.13
126.7621 304.13
126.7884 304.47
126.8155 304.47
126.8428 305.575
126.8704 305.575
126.8975 307.105
126.9251 307.785
126.9524 307.785
126.9841 309.315
127.0101 309.315
127.0374 311.525
127.0648 311.525
127.0918 312.63
127.1187 312.63
127.1461 314.16
127.1787 314.5
127.2082 314.5
127.2334 316.71
127.2607 316.71
127.2882 318.24
127.3178 318.24
127.3431 319.345
127.37 319.345
127.3975 320.79
127.4267 321.895
127.4526 321.895
127.4929 322.66
127.5196 322.66
127.5459 324.87
127.5714 324.87
127.5987 325.975
127.6281 326.74
127.6546 326.74
127.6809 327.845
127.7092 327.845
127.7369 329.375
127.7637 329.375
127.7911 330.48
127.8188 330.48
127.8543 332.35
127.8812 333.795
127.9149 333.795
127.9416 334.9
127.9685 334.9
127.9959 336.43
128.0224 336.43
128.0575 337.535
128.0954 339.405
128.1215 339.405
128.1467 340.85
128.1737 341.275
128.2003 341.275
128.2269 341.955
128.2556 341.955
128.2831 342.38
128.3106 342.38
128.3374 342.38
128.3631 342.38
128.3903 342.38
128.4184 342.38
128.4455 342.38
128.4749 342.38
128.5018 342.38
128.5383 342.38
128.5646 342.38
128.5901 342.38
128.6168 342.38
128.6435 342.38
128.6701 342.38
128.6984 342.38
128.7263 342.38
128.7544 342.38
128.782 342.38
128.8083 342.38
128.8377 342.38
128.8652 342.38
128.8921 342.38
128.9291 342.38
128.957 342.38
128.9849 342.38
129.0199 342.38
129.0452 342.72
129.0719 342.72
129.0999 343.485
129.1291 344.25
129.1556 344.25
129.1827 344.93
129.2089 344.93
129.2347 345.355
129.2609 345.355
129.2895 347.14
129.3191 347.14
129.356 348.33
129.3818 350.54
129.417 350.54
129.4435 352.41
129.4706 352.41
129.4965 353.09
129.5235 356.065
129.554 356.065
129.5819 359.04
129.6136 359.04
129.6446 362.44
129.6844 364.225
129.7147 364.225
129.7405 366.095
129.7704 366.095
129.798 368.73
129.8256 370.175
129.8518 370.175
129.8796 371.28
129.9084 371.28
129.9349 371.28
129.9612 371.28
129.9928 371.28
130.02 371.28
130.0467 370.94
130.0765 370.94
130.1088 370.94
130.1372 370.94
130.1646 370.94
130.1936 370.94
130.2205 370.94
130.248 371.28
130.2764 371.28
130.308 371.28
130.337 371.28
130.3676 371.28
130.3963 371.28
130.4228 371.28
130.455 371.28
130.4817 371.28
130.5078 371.28
130.5416 371.28
130.5688 371.28
130.6026 371.28
130.6289 371.28
130.6542 371.28
130.6819 371.28
130.7099 371.28
130.737 371.28
130.7697 371.28
130.7996 371.28
130.8264 371.28
130.8525 371.28
130.8786 371.28
130.9113 371.28
130.94 371.28
130.9665 371.28
130.9922 371.28
131.0218 371.28
131.0492 371.28
131.076 371.28
131.1104 371.28
131.1395 371.28
131.1674 371.28
131.1945 371.28
131.2224 371.28
131.2493 371.28
131.2762 371.28
131.3034 371.28
131.3351 371.28
131.362 371.28
131.3887 371.28
131.4173 371.28
131.4453 371.28
131.4726 371.28
131.5005 371.28
131.5269 371.28
131.5529 371.28
131.5809 371.28
131.6107 371.28
131.6368 371.28
131.6655 371.28
131.6932 371.28
131.7204 371.28
131.7465 371.28
131.7726 371.28
131.8029 370.94
131.8299 371.28
131.856 371.28
131.8841 371.28
131.914 371.28
131.9416 370.94
131.9684 370.94
131.9978 370.94
132.0267 370.94
132.0631 370.94
132.102 370.94
132.1287 370.94
132.1554 370.94
132.1822 370.94
132.2088 370.94
132.2358 370.94
132.2641 370.94
132.2932 370.94
132.3198 370.94
132.3457 370.94
132.3729 370.94
132.3992 370.94
132.4265 370.94
132.4573 370.94
132.484 371.28
132.5176 371.28
132.551 371.28
132.5765 371.28
132.6031 371.28
132.6303 371.28
132.6567 371.28
132.6851 371.28
132.7235 371.28
132.7539 371.28
132.7801 371.28
132.8102 371.28
132.8374 371.28
132.8695 371.28
132.896 371.28
132.9233 371.28
132.9523 371.28
132.9803 371.28
133.0071 371.28
133.035 371.28
133.0671 371.28
133.0947 371.28
133.122 371.28
133.1504 371.28
133.1835 371.28
133.2168 371.28
133.2444 371.28
133.2703 371.28
133.2969 371.28
133.3235 371.28
133.3563 371.28
133.3821 371.28
133.4092 371.28
133.4363 371.28
133.4624 371.28
133.4881 371.28
133.5199 371.28
133.547 371.28
133.5756 371.28
133.6042 371.28
133.6322 371.28
133.6601 371.28
133.6864 371.28
133.7122 371.28
133.7426 371.28
133.7701 371.28
133.7982 371.28
133.8235 371.28
133.8514 371.28
133.8833 371.28
133.9137 371.28
133.9401 371.28
133.9722 371.28
134.0027 371.28
134.0341 371.28
134.0599 371.28
134.0862 371.28
134.1134 371.28
134.1423 371.28
134.1685 371.28
134.1963 371.28
134.2294 371.28
134.2559 371.28
134.2823 371.28
134.3094 371.28
134.3365 371.28
134.3624 371.28
134.388 371.28
134.4151 371.28
134.4441 371.28
134.4701 371.28
134.4954 371.28
134.523 371.28
134.55 371.28
134.5765 371.28
134.6029 371.28
134.6301 371.28
134.6596 371.28
134.6859 371.28
134.721 371.28
134.7482 371.28
134.7773 371.28
134.8066 371.28
134.8319 371.28
134.8694 371.28
134.8962 371.28
134.9224 371.28
134.9494 371.28
134.9782 371.28
135.0113 371.28
135.0415 371.28
135.0729 371.28
135.0999 371.28
135.1368 371.28
135.1631 371.28
135.1886 371.28
135.2168 371.28
135.2445 371.28
135.2728 371.28
135.3007 371.28
135.3287 371.28
135.3567 371.28
135.3849 371.28
135.412 371.28
135.4397 371.28
135.4666 371.28
135.4946 371.28
135.5201 371.28
135.5475 371.28
135.575 371.28
135.6017 371.28
135.6279 371.28
135.6554 371.28
135.6823 371.28
135.7104 371.28
135.7359 371.28
135.7633 371.28
135.7899 371.28
135.8165 371.28
135.8427 371.28
135.8797 371.28
135.9066 371.28
135.9364 371.28
135.9621 371.28
135.9919 371.28
136.0211 371.28
136.0474 371.28
136.0765 371.28
136.1048 371.28
136.1321 371.28
136.16 371.28
136.1858 371.28
136.214 371.28
136.2414 371.28
136.271 371.28
136.3165 371.28
136.3434 371.28
136.3755 371.28
136.4024 371.28
136.4309 371.28
136.4578 371.28
136.4848 371.28
136.5181 371.28
136.5434 371.28
136.5703 371.28
136.5994 371.28
136.6258 371.28
136.6516 371.28
136.6795 371.28
136.7151 371.28
136.7414 371.28
136.7673 371.28
136.7946 371.28
136.8235 371.28
136.8498 371.28
136.8752 371.28
136.9019 371.28
136.929 371.28
136.9553 371.28
136.986 371.28
137.0133 371.28
137.0428 371.28
137.0687 371.28
137.0948 371.28
137.1218 371.28
137.1479 371.28
137.1743 371.28
137.1998 371.28
137.2269 371.28
137.2565 371.28
137.2825 371.28
137.308 371.28
137.3345 371.28
137.3622 371.28
137.3926 371.28
137.419 371.28
137.4502 371.28
137.4796 371.28
137.5107 371.28
137.5366 371.28
137.5633 371.28
137.5908 371.28
137.6177 371.28
137.6431 371.28
137.6703 371.28
137.6996 371.28
137.7269 371.28
137.7528 371.28
137.7798 371.28
137.8073 371.28
137.8343 371.28
137.8598 371.28
137.8871 371.28
137.9162 371.28
137.9424 371.28
137.9687 371.28
137.9964 371.28
138.0233 371.28
138.0502 371.28
138.0842 371.28
138.1109 371.28
138.1393 371.28
138.1652 371.28
138.1909 371.28
138.2204 371.28
138.2475 371.28
138.2739 371.28
138.2998 371.28
138.3268 371.28
138.3559 371.28
138.3826 371.28
138.4087 371.28
138.4385 371.28
138.4667 371.28
138.4933 371.28
138.519 371.28
138.5479 371.28
138.5766 371.28
138.603 371.28
138.6289 371.28
138.6565 371.28
138.6848 371.28
138.7174 371.28
138.7432 371.28
138.771 371.28
138.802 371.28
138.8279 371.28
138.8538 371.28
138.8815 371.28
138.909 371.28
138.9355 371.28
138.9613 371.28
138.9903 371.28
139.0213 371.28
139.0469 371.28
139.073 371.28
139.1007 371.28
139.1284 371.28
139.1559 371.28
139.1817 371.28
139.2092 371.28
139.2384 371.28
139.265 371.28
139.2907 371.28
139.3248 371.28
139.3548 371.28
139.3807 371.28
139.4089 371.28
139.4367 371.28
139.4665 371.28
139.493 371.28
139.5186 371.28
139.5464 371.28
139.5807 371.28
139.6066 371.28
139.6315 371.28
139.6588 371.28
139.6909 371.28
139.7172 371.28
139.743 371.28
139.7699 371.28
139.7972 371.28
139.8247 371.28
139.8506 371.28
139.8781 371.28
139.9095 371.28
139.9363 371.28
139.9626 371.28
139.9954 371.28
140.0223 371.28
140.0485 371.28
140.0747 371.28
140.1014 371.28
140.1302 371.28
140.1564 371.28
140.1824 371.28
140.2105 371.28
140.2372 371.28
140.2639 371.28
140.29 371.28
140.3163 371.28
140.3447 371.28
140.3717 371.28
140.3982 371.28
140.4257 371.28
140.4529 371.28
140.4802 371.28
140.506 371.28
140.5326 371.28
140.5614 371.28
140.5881 371.28
140.6191 371.28
140.6455 371.28
140.6722 371.28
140.6989 371.28
140.7247 371.28
140.752 371.28
140.7815 371.28
140.8086 371.28
140.8343 371.28
140.8616 371.28
140.8887 371.28
140.9156 371.28
140.942 371.28
140.9698 371.28
141.0053 371.28
141.0314 371.28
141.0577 371.28
141.0919 371.28
141.1192 371.28
141.1458 371.28
141.1711 371.28
141.2001 371.28
141.2264 371.28
141.253 371.28
141.2793 371.28
141.3171 371.28
141.3434 371.28
141.3694 371.28
141.3975 371.28
141.4265 371.28
141.4537 371.28
141.4799 371.28
141.5094 371.28
141.5365 371.28
141.5637 371.28
141.5902 371.28
141.6161 371.28
141.6456 371.28
141.6735 371.28
141.7007 371.28
141.7265 371.28
141.7533 371.28
141.7805 371.28
141.8069 371.28
141.8328 371.28
141.8622 371.28
141.8895 371.28
141.9157 371.28
141.9413 371.28
141.9687 371.28
141.9965 371.28
142.0233 371.28
142.0495 371.28
142.078 371.28
142.1075 371.28
142.1465 371.28
142.1718 371.28
142.1983 371.28
142.2251 371.28
142.2534 371.28
142.2881 371.28
142.3147 371.28
142.3414 371.28
142.3753 371.28
142.408 371.28
142.4357 371.28
142.4691 371.28
142.4972 371.28
142.5229 371.28
142.5508 371.28
142.5795 371.28
142.6054 371.28
142.6306 371.28
142.6576 371.28
142.6849 371.28
142.7186 371.28
142.7527 371.28
142.7796 371.28
142.8067 371.28
142.8335 371.28
142.8597 371.28
142.887 371.28
142.9178 371.28
142.9445 371.28
142.9708 371.28
142.9989 371.28
143.0276 371.28
143.0544 371.28
143.08 371.28
143.1067 371.28
143.1357 371.28
143.1616 371.28
143.1873 371.28
143.2146 371.28
143.2526 371.28
143.2798 371.28
143.3107 371.28
143.3397 371.28
143.3672 371.28
143.394 371.28
143.4229 371.28
143.4504 371.28
143.4777 371.28
143.5044 371.28
143.5311 371.28
143.5613 371.28
143.5933 371.28
143.6224 371.28
143.6482 371.28
143.6751 371.28
143.7033 371.28
143.73 371.28
143.7561 371.28
143.7862 371.28
143.8148 371.28
143.8413 371.28
143.8752 371.28
143.9024 371.28
143.9297 371.28
143.9563 371.28
143.9859 371.28
144.0143 371.28
144.041 371.28
144.0674 371.28
144.1028 371.28
144.13 371.28
144.1674 371.28
144.1956 371.28
144.2216 371.28
144.2491 371.28
144.2763 371.28
144.303 371.28
144.3295 371.28
144.3638 371.28
144.4008 371.28
144.4291 371.28
144.4548 371.28
144.4915 371.28
144.5189 371.28
144.5535 371.28
144.5864 371.28
144.6132 371.28
144.6418 371.28
144.6681 371.28
144.6939 371.28
144.7219 371.28
144.7518 371.28
144.7832 371.28
144.8142 371.28
144.8433 371.28
144.8777 371.28
144.904 371.28
144.9292 371.28
144.956 371.28
144.9857 371.28
145.0134 371.28
145.046 371.28
145.0774 371.28
145.105 371.28
145.1318 371.28
145.1637 371.28
145.1918 371.28
145.2187 371.28
145.2475 371.28
145.2755 371.28
145.3028 371.28
145.3292 371.28
145.3559 371.28
145.3824 371.28
145.4092 371.28
145.4381 371.28
145.4642 371.28
145.4921 371.28
145.5219 371.28
145.5549 371.28
145.5817 371.28
145.6072 371.28
145.6368 371.28
145.6647 371.28
145.6932 371.28
145.7197 371.28
145.7485 371.28
145.7812 371.28
145.8073 371.28
145.8325 371.28
145.8596 371.28
145.8893 371.28
145.924 371.28
145.9491 371.28
145.9776 371.28
146.0059 371.28
146.0331 371.28
146.0622 371.28
146.0898 371.28
146.1195 371.28
146.1458 371.28
146.1714 371.28
146.1992 371.28
146.2276 371.28
146.2544 371.28
146.2859 371.28
146.3176 371.28
146.3521 371.28
146.3786 371.28
146.4039 371.28
146.4315 371.28
146.4605 371.28
146.4884 371.28
146.5139 371.28
146.5408 371.28
146.5697 371.28
146.5956 371.28
146.6209 371.28
146.6481 371.28
146.6757 371.28
146.7076 371.28
146.7396 371.28
146.7709 371.28
146.8046 371.28
146.8306 371.28
146.856 371.28
146.8841 371.28
146.9164 371.28
146.9438 371.28
146.9696 371.28
146.9971 371.28
147.0327 371.28
147.059 371.28
147.086 371.28
147.1139 371.28
147.1411 371.28
147.1709 371.28
147.1966 371.28
147.2245 371.28
147.253 371.28
147.2792 371.28
147.3058 371.28
147.3326 371.28
147.3593 371.28
147.3857 371.28
147.4116 371.28
147.4394 371.28
147.4686 371.28
147.4993 371.28
147.5252 371.28
147.553 371.28
147.5806 371.28
147.6071 371.28
147.6328 371.28
147.6596 371.28
147.6924 371.28
147.7193 371.28
147.7486 371.28
147.7842 371.28
147.8112 371.28
147.8378 371.28
147.8635 371.28
147.8928 371.28
147.9214 371.28
147.9482 371.28
147.9744 371.28
148.0019 371.28
148.03 371.28
148.0568 371.28
148.0832 371.28
148.1216 371.28
148.1479 371.28
148.1745 371.28
148.2004 371.28
148.2284 371.28
148.2557 371.28
148.282 371.28
148.3081 371.28
148.3366 371.28
148.3631 371.28
148.3901 371.28
148.4164 371.28
148.4461 371.28
148.4728 371.28
148.4988 371.28
148.5245 371.28
148.5538 371.28
148.5816 371.28
148.6127 371.28
148.6391 371.28
148.6671 371.28
148.6945 371.28
148.7265 371.28
148.7562 371.28
148.784 371.28
148.8121 371.28
148.8385 371.28
148.8647 371.28
148.8923 371.28
148.9195 371.28
148.9572 371.28
148.9872 371.28
149.0148 371.28
149.0499 371.28
149.0764 371.28
149.1028 371.28
149.1313 371.28
149.1586 371.28
149.1878 371.28
149.2149 371.28
149.2422 371.28
149.2693 371.28
149.2956 371.28
149.321 371.28
149.3483 371.28
149.3862 371.28
149.4146 371.28
149.4402 371.28
149.4684 371.28
149.4948 371.28
149.5261 371.28
149.552 371.28
149.5791 371.28
149.6057 371.28
149.6345 371.28
149.6602 371.28
149.6877 371.28
149.7145 371.28
149.742 371.28
149.7682 371.28
149.7955 371.28
149.8232 371.28
149.8517 371.28
149.8779 371.28
149.9048 371.28
149.9327 371.28
149.9589 371.28
149.9857 371.28
150.0126 371.28
150.0404 371.28
150.0696 371.28
150.0956 371.28
150.1241 371.28
150.1516 371.28
150.1787 371.28
150.2058 371.28
150.2433 371.28
150.2792 371.28
150.3066 371.28
150.3437 371.28
150.3715 371.28
150.3987 371.28
150.4251 371.28
150.4507 371.28
150.4859 371.28
150.5133 371.28
150.5403 371.28
150.5659 371.28
150.593 371.28
150.6201 371.28
150.6461 371.28
150.6722 371.28
150.7016 371.28
150.7286 371.28
150.7553 371.28
150.787 371.28
150.8224 371.28
150.8509 371.28
150.8779 371.28
150.9062 371.28
150.9332 371.28
150.9606 371.28
150.9894 371.28
151.0258 371.28
151.0525 371.28
151.0843 371.28
151.1236 371.28
151.1491 371.28
151.1833 371.28
151.2108 371.28
151.2372 371.28
151.266 371.28
151.2935 371.28
151.3227 371.28
151.3494 371.28
151.3766 371.28
151.4036 371.28
151.4316 371.28
151.4662 371.28
151.4925 371.28
151.5194 371.28
151.5491 371.28
151.5803 371.28
151.6069 371.28
151.6337 371.28
151.6615 371.28
151.6878 371.28
151.7139 371.28
151.7413 371.28
151.7705 371.28
151.7971 371.28
151.826 371.28
151.8532 371.28
151.8806 371.28
151.9069 371.28
151.9328 371.28
151.9597 371.28
151.9896 371.28
152.0162 371.28
152.0421 371.28
152.07 371.28
152.1008 371.28
152.1273 371.28
152.1539 371.28
152.1815 371.28
152.2108 371.28
152.238 371.28
152.2639 371.28
152.2915 371.28
152.326 371.28
152.3567 371.28
152.3825 371.28
152.4114 371.28
152.439 371.28
152.4656 371.28
152.492 371.28
152.5191 371.28
152.5465 371.28
152.5737 371.28
152.5993 371.28
152.6314 371.28
152.6591 371.28
152.6862 371.28
152.7118 371.28
152.7388 371.28
152.7658 371.28
152.8039 371.28
152.8311 371.28
152.8579 371.28
152.8856 371.28
152.9121 371.28
152.9384 371.28
152.9694 371.28
152.9967 371.28
153.0232 371.28
153.0515 371.28
153.0795 371.28
153.1073 371.28
153.1366 371.28
153.1654 371.28
153.197 371.28
153.2235 371.28
153.2519 371.28
153.2781 371.28
153.306 371.28
153.3342 371.28
153.3651 371.28
153.3941 371.28
153.4265 371.28
153.4561 371.28
153.4825 371.28
153.5079 371.28
153.5353 371.28
153.5636 371.28
153.5895 371.28
153.615 371.28
153.6431 371.28
153.6727 371.28
153.6993 371.28
153.7252 371.28
153.7529 371.28
153.7808 371.28
153.8099 371.28
153.8357 371.28
153.8629 371.28
153.9013 371.28
153.9269 371.28
153.953 371.28
153.9812 371.28
154.0082 371.28
154.0351 371.28
154.0612 371.28
154.0885 371.28
154.1189 371.28
154.1528 371.28
154.1781 371.28
154.2144 371.28
154.241 371.28
154.2747 371.28
154.3123 371.28
154.3417 371.28
154.3685 371.28
154.3943 371.28
154.4201 371.28
154.4526 371.28
154.4794 371.28
154.5083 371.28
154.5384 371.28
154.5673 371.28
154.594 371.28
154.6245 371.28
154.6501 371.28
154.6777 371.28
154.7055 371.28
154.7317 371.28
154.7571 371.28
154.7863 371.28
154.8132 371.28
154.8395 371.28
154.8653 371.28
154.893 371.28
154.9204 371.28
154.9473 371.28
154.9734 371.28
155.0065 371.28
155.0448 371.28
155.0724 371.28
155.0984 371.28
155.126 371.28
155.153 371.28
155.18 371.28
155.2171 371.28
155.2463 371.28
155.2736 371.28
155.2999 371.28
155.3262 371.28
155.3577 371.28
155.3854 371.28
155.4137 371.28
155.4395 371.28
155.4667 371.28
155.5 371.28
155.5266 371.28
155.5544 371.28
155.5812 371.28
155.6088 371.28
155.6373 371.28
155.6642 371.28
155.6907 371.28
155.7179 371.28
155.7446 371.28
155.7706 371.28
155.7978 371.28
155.8258 371.28
155.8545 371.28
155.8807 371.28
155.9083 371.28
155.9382 371.28
155.9648 371.28
155.9969 371.28
156.0246 371.28
156.0515 371.28
156.081 371.28
156.1071 371.28
156.1349 371.28
156.1625 371.28
156.191 371.28
156.2189 371.28
156.2467 371.28
156.282 371.28
156.3105 371.28
156.3359 371.28
156.3662 371.28
156.4039 371.28
156.4298 371.28
156.455 371.28
156.482 371.28
156.5117 371.28
156.5383 371.28
156.5638 371.28
156.5912 371.28
156.6255 371.28
156.6512 371.28
156.6774 371.28
156.711 371.28
156.7402 371.28
156.766 371.28
156.7922 371.28
156.8238 371.28
156.8517 371.28
156.8795 371.28
156.9052 371.28
156.9326 371.28
156.962 371.28
156.9887 371.28
157.0149 371.28
157.0419 371.28
157.069 371.28
157.0959 371.28
157.1332 371.28
157.1622 371.28
157.1913 371.28
157.2193 371.28
157.2454 371.28
157.273 371.28
157.3075 371.28
157.3386 371.28
157.3664 371.28
157.393 371.28
157.4203 371.28
157.4481 371.28
157.4748 371.28
157.5013 371.28
157.5337 370.94
157.5598 370.94
157.5875 370.94
157.6148 370.94
157.6419 370.94
157.6687 370.94
157.6938 370.94
157.721 370.94
157.7499 370.94
157.7765 370.94
157.8044 370.94
157.8324 370.94
157.8596 370.94
157.8866 370.94
157.914 370.94
157.941 370.94
157.9738 370.94
158.0062 370.94
158.0338 370.94
158.0619 370.94
158.0936 371.28
158.1198 371.28
158.1455 371.28
158.1742 371.28
158.2056 371.28
158.2352 371.28
158.263 371.28
158.2895 371.28
158.3159 371.28
158.3427 371.28
158.3701 371.28
158.3979 371.28
158.4258 371.28
158.4527 371.28
158.4805 371.28
158.5073 371.28
158.5376 371.28
158.5649 371.28
158.5912 371.28
158.6228 371.28
158.65 371.28
158.6764 371.28
158.7048 371.28
158.7322 371.28
158.7603 371.28
158.7866 371.28
158.8134 371.28
158.8471 371.28
158.8738 371.28
158.8997 371.28
158.9274 371.28
158.9659 371.28
158.9933 371.28
159.0291 371.28
159.0548 371.28
159.0817 371.28
159.1156 371.28
159.1467 371.28
159.1731 371.28
159.2 371.28
159.2265 371.28
159.253 371.28
159.2804 371.28
159.307 371.28
159.3334 371.28
159.3615 371.28
159.3876 371.28
159.4157 371.28
159.4428 371.28
159.4695 371.28
159.4953 371.28
159.5231 371.28
159.5519 371.28
159.5816 371.28
159.6073 371.28
159.6351 371.28
159.6624 371.28
159.6915 371.28
159.7174 371.28
159.7445 371.28
159.7726 371.28
159.8009 371.28
159.8281 371.28
159.856 371.28
159.8839 370.94
159.9148 370.94
159.9403 370.94
159.9676 370.94
160.0029 370.94
160.0311 370.94
160.0572 370.94
160.0846 369.835
160.1131 369.835
160.141 368.73
160.1669 368.73
160.2019 367.625
160.2317 366.095
160.2614 366.095
160.2873 364.65
160.3141 364.65
160.3446 363.12
160.3716 363.12
160.3992 362.44
160.4385 360.57
160.4745 360.57
160.5017 357.595
160.5273 354.96
160.5622 354.96
160.5891 353.515
160.6149 353.515
160.6405 351.985
160.6715 351.985
160.699 349.775
160.7254 349.435
160.7507 349.435
160.7778 348.33
160.8061 348.33
160.8364 347.905
160.8627 347.905
160.8925 347.14
160.9194 347.14
160.9456 346.8
160.9715 346.8
161.0163 346.035
161.043 345.355
161.0774 344.25
161.105 344.25
161.1317 343.825
161.161 343.825
161.1875 342.72
161.2128 342.72
161.2403 342.38
161.2672 342.38
161.2934 341.615
161.322 341.615
161.3535 340.85
161.3812 340.51
161.4125 340.51
161.4434 340.085
161.4758 340.085
161.5083 340.085
161.5376 339.745
161.5637 339.745
161.5904 339.745
161.6177 339.745
161.6447 339.745
161.67 339.745
161.6983 339.745
161.7353 339.745
161.7637 339.745
161.789 340.085
161.8167 340.085
161.8493 340.085
161.8752 340.085
161.9016 340.085
161.9295 340.085
161.9565 340.085
161.9858 340.51
162.0131 340.51
162.0405 340.51
162.0704 340.51
162.0967 340.51
162.1225 340.51
162.15 340.85
162.1773 341.275
162.2059 341.275
162.2313 341.615
162.2594 341.615
162.2857 341.615
162.312 341.615
162.3401 341.955
162.3739 341.955
162.4005 342.38
162.4287 342.38
162.4553 342.38
162.4938 342.72
162.5218 342.72
162.5496 343.06
162.5754 343.06
162.6024 343.06
162.6324 343.485
162.6594 343.485
162.6855 343.485
162.7159 343.485
162.7442 343.485
162.7703 343.485
162.7954 343.485
162.823 343.485
162.8562 343.485
162.8822 343.485
162.9073 343.485
162.9347 343.485
162.9621 343.485
162.9913 343.485
163.0171 343.485
163.0446 343.485
163.0748 343.485
163.1015 343.485
163.128 343.485
163.1605 343.485
163.1905 343.825
163.2173 343.825
163.2434 343.825
163.2726 343.825
163.3053 344.25
163.3329 344.25
163.3586 344.25
163.3859 344.59
163.4132 344.59
163.4393 344.59
163.4649 344.59
163.5001 344.93
163.5298 344.93
163.5577 344.93
163.5841 345.355
163.6121 345.355
163.6524 345.355
163.6808 345.355
163.7076 345.355
163.7382 345.355
163.7661 345.355
163.7956 345.355
163.8324 345.355
163.8617 345.355
163.8907 345.355
163.9187 345.355
163.9474 345.355
163.9811 345.355
164.0111 345.355
164.043 345.355
164.072 345.355
164.1003 345.355
164.1286 345.355
164.1649 345.355
164.1909 345.355
164.2281 345.355
164.2556 345.355
164.2828 345.355
164.3093 345.355
164.3426 345.355
164.3719 345.355
164.3999 345.355
164.4299 345.355
164.4587 345.355
164.4865 345.355
164.514 345.355
164.5401 345.355
164.5687 345.355
164.6025 345.355
164.6317 345.355
164.6577 345.355
164.6865 345.355
164.7151 345.355
164.7414 345.355
164.767 345.355
164.7943 345.355
164.8242 345.355
164.8518 345.355
164.8793 345.355
164.9066 345.355
164.9341 345.355
164.961 345.355
164.9876 345.355
165.0154 345.355
165.0444 345.355
165.071 345.355
165.0976 345.355
165.1253 345.355
165.2822 345.355
165.3366 345.355
