時間[s] タイヤの舵角[deg]
0 0
0.02 -6.95
0.05333333 -6.95
0.08666666 -6.95
0.12 -6.95
0.1512008 -6.95
0.1833222 -6.95
0.2166555 -6.95
0.2441588 -6.95
0.2729307 -6.95
0.3051079 -6.95
0.3342223 -6.95
0.3632067 -6.95
0.3949971 -6.95
0.425134 -6.95
0.4543716 -6.95
0.487705 -6.95
0.5164707 -6.95
0.5459763 -6.95
0.5768183 -6.95
0.6101517 -6.95
0.643485 -6.95
0.6747389 -6.95
0.7063546 -6.95
0.7360255 -6.95
0.768167 -6.95
0.7977752 -6.95
0.8271462 -6.95
0.8557961 -6.95
0.8847839 -6.95
0.9147404 -6.95
0.9480737 -6.95
0.9794315 -6.95
1.009798 -6.95
1.040191 -6.95
1.071028 -6.95
1.104362 -6.95
1.136722 -6.95
1.167584 -6.95
1.198425 -6.95
1.229653 -6.95
1.262986 -6.95
1.292329 -6.95
1.323546 -6.95
1.355783 -6.95
1.389117 -6.95
1.420627 -6.95
1.45396 -6.95
1.485406 -6.95
1.514803 -6.95
1.543673 -6.95
1.575413 -6.95
1.602283 -6.95
1.635015 -6.95
1.668348 -6.95
1.701681 -6.95
1.731877 -6.95
1.765048 -6.95
1.796919 -6.95
1.827372 -6.95
1.856465 -6.95
1.886799 -6.95
1.915817 -6.95
1.949151 -6.95
1.97626 -6.95
2.007358 -6.95
2.039285 -6.95
2.071068 -6.95
2.104401 -6.95
2.136131 -6.95
2.165152 -6.95
2.193805 -6.95
2.223388 -6.95
2.255888 -6.95
2.288629 -6.95
2.318249 -6.95
2.345738 -6.95
2.376757 -6.95
2.406377 -6.95
2.436958 -6.95
2.470291 -6.95
2.500907 -6.95
2.532176 -6.95
2.559547 -6.95
2.589292 -6.95
2.622625 -6.95
2.65461 -6.95
2.687015 -6.95
2.720348 -6.95
2.753682 -6.95
2.787015 -6.95
2.820349 -6.95
2.851554 -6.95
2.884888 -6.95
2.918221 -6.95
2.951554 -6.95
2.983393 -6.95
3.016637 -6.95
3.049275 -6.95
3.081023 -6.95
3.108387 -6.95
3.139438 -6.95
3.168601 -6.95
3.198385 -6.95
3.228066 -6.95
3.258104 -6.95
3.291437 -6.95
3.322022 -6.95
3.353714 -6.95
3.383848 -6.95
3.414017 -6.95
3.446974 -6.95
3.473728 -6.95
3.502655 -6.95
3.532529 -6.95
3.565862 -6.95
3.595106 -6.95
3.62844 -6.95
3.658072 -6.95
3.691405 -6.95
3.72209 -6.95
3.752553 -6.95
3.785886 -6.95
3.817455 -6.95
3.846493 -6.95
3.875847 -6.95
3.90555 -6.95
3.93661 -6.95
3.966357 -6.95
3.998479 -6.95
4.028223 -6.95
4.057384 -6.95
4.087852 -6.95
4.118417 -6.95
4.148727 -6.95
4.178873 -6.95
4.211895 -6.95
4.242339 -6.95
4.274084 -6.95
4.303134 -6.95
4.332357 -6.95
4.364775 -6.95
4.398108 -6.95
4.431442 -6.95
4.462601 -6.95
4.493889 -6.95
4.527223 -6.95
4.55928 -6.95
4.588191 -6.95
4.618831 -6.95
4.649938 -6.95
4.681685 -6.95
4.714602 -6.95
4.7471 -6.95
4.780433 -6.95
4.81192 -6.95
4.838525 -6.95
4.870919 -6.95
4.902451 -6.95
4.933209 -6.95
4.961332 -6.95
4.993812 -6.95
5.027102 -6.95
5.056454 -6.95
5.085518 -6.95
5.118851 -6.95
5.152184 -6.95
5.185518 -6.95
5.214962 -6.95
5.245766 -6.95
5.279099 -6.95
5.312433 -6.95
5.344519 -6.95
5.374106 -6.95
5.404761 -6.95
5.43681 -6.95
5.464925 -6.95
5.495744 -6.95
5.526933 -6.95
5.558115 -6.95
5.58918 -6.95
5.620475 -6.95
5.653669 -6.95
5.683688 -6.95
5.71404 -6.95
5.744464 -6.95
5.775234 -6.95
5.808567 -6.95
5.838802 -6.95
5.869256 -6.95
5.902589 -6.95
5.933965 -6.95
5.960771 -6.95
5.991386 -6.95
6.02472 -6.95
6.053466 -6.95
6.084825 -6.95
6.118158 -6.95
6.147574 -6.95
6.176353 -6.95
6.206541 -6.95
6.236279 -6.95
6.268702 -6.95
6.302035 -6.95
6.333583 -6.95
6.366916 -6.95
6.400249 -6.95
6.429619 -6.95
6.458251 -6.95
6.48917 -6.95
6.521886 -6.95
6.55522 -6.95
6.584137 -6.95
6.615074 -6.95
6.646223 -6.95
6.676064 -6.95
6.707038 -6.95
6.738659 -6.95
6.768709 -6.95
6.802042 -6.95
6.831532 -6.95
6.861659 -6.95
6.894992 -6.95
6.925969 -6.95
6.954344 -6.95
6.987678 -6.95
7.017581 -6.95
7.050914 -6.95
7.07919 -6.95
7.112051 -6.95
7.145138 -6.95
7.175361 -6.95
7.206938 -6.95
7.237352 -6.95
7.267295 -6.95
7.297447 -6.95
7.33078 -6.95
7.361257 -6.95
7.392519 -6.95
7.421725 -6.95
7.450225 -6.95
7.483559 -6.95
7.515689 -6.95
7.544517 -6.95
7.572775 -6.95
7.606109 -6.95
7.637652 -6.95
7.667748 -6.95
7.695343 -6.95
7.728677 -6.95
7.759844 -6.95
7.790192 -6.95
7.820139 -6.95
7.850173 -6.95
7.883507 -6.95
7.915882 -6.95
7.943843 -6.95
7.97404 -6.95
8.006608 -6.95
8.039615 -6.95
8.071715 -6.95
8.105049 -6.95
8.134692 -6.95
8.16552 -6.95
8.193368 -6.95
8.226701 -6.95
8.25654 -6.95
8.287367 -6.95
8.316055 -6.95
8.346676 -6.95
8.376751 -6.95
8.405979 -6.95
8.439073 -6.95
8.47123 -6.95
8.503361 -6.95
8.533413 -6.95
8.563144 -6.95
8.596477 -6.95
8.626521 -6.95
8.656745 -6.95
8.68696 -6.95
8.718001 -6.95
8.747094 -6.95
8.776883 -6.95
8.809261 -6.95
8.839537 -6.95
8.872869 -6.95
8.90414 -6.95
8.937474 -6.95
8.970053 -6.95
9.000337 -6.95
9.033669 -6.95
9.061967 -6.95
9.0953 -6.95
9.128633 -6.95
9.159541 -6.95
9.191494 -6.95
9.220245 -6.95
9.252306 -6.95
9.28564 -6.95
9.316463 -6.95
9.349795 -6.95
9.381818 -6.95
9.411897 -6.95
9.445217 -6.95
9.47855 -6.95
9.511884 -6.95
9.542935 -6.95
9.572872 -6.95
9.60181 -6.95
9.634037 -6.95
9.665298 -6.95
9.697258 -6.95
9.729115 -6.95
9.760751 -6.95
9.789771 -6.95
9.817127 -6.95
9.846297 -6.95
9.876487 -6.95
9.905116 -6.95
9.934707 -6.95
9.966206 -6.95
9.997202 -6.95
10.02865 -6.95
10.05973 -6.95
10.09063 -6.95
10.12396 -6.95
10.1563 -6.95
10.18736 -6.95
10.22033 -6.95
10.25231 -6.95
10.28223 -6.95
10.31182 -6.95
10.34515 -6.95
10.3744 -6.95
10.40445 -6.95
10.43752 -6.95
10.47016 -6.95
10.50317 -6.95
10.53483 -6.95
10.56816 -6.95
10.59867 -6.95
10.62954 -6.95
10.65972 -6.95
10.68883 -6.95
10.72009 -6.95
10.7507 -6.95
10.78083 -6.95
10.81375 -6.95
10.84334 -6.95
10.87668 -6.95
10.91001 -6.95
10.94294 -6.95
10.97627 -6.95
11.00683 -6.95
11.03691 -6.95
11.06609 -6.95
11.09595 -6.95
11.12928 -6.95
11.15914 -6.95
11.18962 -6.95
11.22296 -6.95
11.25416 -6.95
11.2822 -6.95
11.31046 -6.95
11.3438 -6.95
11.37161 -6.95
11.40041 -6.95
11.42851 -6.95
11.45892 -6.95
11.49225 -6.95
11.5206 -6.95
11.55317 -6.95
11.58222 -6.95
11.61555 -6.95
11.64704 -6.95
11.67795 -6.95
11.70899 -6.95
11.74233 -6.95
11.77447 -6.95
11.8078 -6.95
11.8401 -6.95
11.87189 -6.95
11.90205 -6.95
11.93281 -6.95
11.96369 -6.95
11.99702 -6.95
12.02695 -6.95
12.05923 -6.95
12.09257 -6.95
12.12435 -6.95
12.15769 -6.95
12.18894 -6.95
12.22059 -6.95
12.25392 -6.95
12.28725 -6.95
12.31622 -6.95
12.34645 -6.95
12.37628 -6.95
12.40563 -6.95
12.43519 -6.95
12.46502 -6.95
12.49835 -6.95
12.52838 -6.95
12.55886 -6.95
12.58963 -6.95
12.62296 -6.95
12.65181 -6.95
12.68322 -6.95
12.71415 -6.95
12.74519 -6.95
12.77411 -6.95
12.80294 -6.95
12.83628 -6.95
12.86765 -6.95
12.89782 -6.95
12.92483 -6.95
12.95778 -6.95
12.99059 -6.95
13.02007 -6.95
13.049 -6.95
13.08074 -6.95
13.11102 -6.95
13.14108 -6.95
13.16975 -6.95
13.20309 -6.95
13.23642 -6.95
13.26563 -6.95
13.29896 -6.95
13.33033 -6.95
13.36054 -6.95
13.39124 -6.95
13.41962 -6.95
13.45232 -6.95
13.48362 -6.95
13.51445 -6.95
13.54647 -6.95
13.57844 -6.95
13.60982 -6.95
13.64299 -6.95
13.6735 -6.95
13.7052 -6.95
13.736 -6.95
13.76838 -6.95
13.79746 -6.95
13.82888 -6.95
13.86021 -6.95
13.88777 -6.95
13.91692 -6.95
13.94846 -6.95
13.97756 -6.95
14.00692 -6.95
14.03648 -6.95
14.06689 -6.95
14.09875 -6.95
14.12852 -6.95
14.16185 -6.95
14.19502 -6.95
14.22466 -6.95
14.2549 -6.95
14.28823 -6.95
14.32081 -6.95
14.35218 -6.95
14.38551 -6.95
14.41593 -6.95
14.44778 -6.95
14.48112 -6.95
14.51165 -6.95
14.54062 -6.95
14.56898 -6.95
14.60232 -6.95
14.63565 -6.95
14.66767 -6.95
14.69814 -6.95
14.72785 -6.95
14.75665 -6.95
14.78702 -6.95
14.81683 -6.95
14.84896 -6.95
14.87763 -6.95
14.90721 -6.95
14.93897 -6.95
14.9723 -6.95
15.00557 -6.95
15.03395 -6.95
15.06368 -6.95
15.09462 -6.95
15.12703 -6.95
15.15534 -6.95
15.1862 -6.95
15.21654 -6.95
15.24987 -6.95
15.27872 -6.95
15.31205 -6.95
15.34538 -6.95
15.37622 -6.95
15.4081 -6.95
15.44143 -6.95
15.47477 -6.95
15.50809 -6.95
15.53444 -6.95
15.56777 -6.95
15.6011 -6.95
15.63218 -6.95
15.65958 -6.95
15.69106 -6.95
15.72433 -6.95
15.75694 -6.95
15.78667 -6.95
15.81769 -6.95
15.85102 -6.95
15.87983 -6.95
15.90945 -6.95
15.93845 -6.95
15.97024 -6.95
16.00243 -6.95
16.03074 -6.95
16.06213 -6.95
16.09129 -6.95
16.12109 -6.95
16.15048 -6.95
16.18204 -6.95
16.21276 -6.95
16.24376 -6.95
16.27409 -6.95
16.30503 -6.95
16.33837 -6.95
16.36879 -6.95
16.39673 -6.95
16.43006 -6.95
16.46112 -6.95
16.49169 -6.95
16.52502 -6.95
16.55691 -6.95
16.58768 -6.95
16.61897 -6.95
16.64966 -6.95
16.68162 -6.95
16.71412 -6.95
16.74474 -6.95
16.77324 -6.95
16.80657 -6.95
16.83947 -6.95
16.86973 -6.95
16.90124 -6.95
16.93157 -6.95
16.96206 -6.95
16.99396 -6.95
17.02729 -6.95
17.05764 -6.95
17.09097 -6.95
17.11986 -6.95
17.14742 -6.95
17.17959 -6.95
17.21008 -6.95
17.23972 -6.95
17.26797 -6.95
17.3013 -6.95
17.33463 -6.95
17.36415 -6.95
17.39748 -6.95
17.43081 -6.95
17.46154 -6.95
17.49043 -6.95
17.5193 -6.95
17.55203 -6.95
17.5826 -6.95
17.61287 -6.95
17.6435 -6.95
17.67683 -6.95
17.70707 -6.95
17.7404 -6.95
17.77373 -6.95
17.80438 -6.95
17.83771 -6.95
17.86882 -6.95
17.90072 -6.95
17.93197 -6.95
17.9632 -6.95
17.99396 -6.95
18.02712 -6.95
18.06045 -6.95
18.09293 -6.95
18.12191 -6.95
18.15063 -6.95
18.18049 -6.95
18.21383 -6.95
18.24716 -6.95
18.28049 -6.95
18.31298 -6.95
18.34492 -6.95
18.37825 -6.95
18.4071 -6.95
18.44043 -6.95
18.47164 -6.95
18.50375 -6.95
18.53709 -6.95
18.56965 -6.95
18.60042 -6.95
18.63165 -6.95
18.66498 -6.95
18.69831 -6.95
18.72804 -6.95
18.75775 -6.95
18.78621 -6.95
18.81821 -6.95
18.85155 -6.95
18.88488 -6.95
18.9131 -6.95
18.94416 -6.95
18.9775 -6.95
19.01083 -6.95
19.04113 -6.95
19.07254 -6.95
19.10217 -6.95
19.13074 -6.95
19.16407 -6.95
19.19345 -6.95
19.22395 -6.95
19.25195 -6.95
19.28042 -6.95
19.31375 -6.95
19.34617 -6.95
19.37891 -6.95
19.41224 -6.95
19.44557 -6.95
19.4789 -6.95
19.51224 -6.95
19.54383 -6.95
19.57717 -6.95
19.6105 -6.95
19.64384 -6.95
19.67215 -6.95
19.70548 -6.95
19.73565 -6.95
19.76435 -6.95
19.79769 -6.95
19.82854 -6.95
19.85915 -6.95
19.89208 -6.95
19.9243 -6.95
19.95764 -6.95
19.98923 -6.95
20.01897 -6.95
20.04776 -6.95
20.08109 -6.95
20.11442 -6.95
20.14322 -6.95
20.17306 -6.95
20.20401 -6.95
20.23607 -6.95
20.2694 -6.95
20.30273 -6.95
20.33249 -6.95
20.36508 -6.95
20.39724 -6.95
20.43057 -6.95
20.46391 -6.95
20.49724 -6.95
20.52808 -6.95
20.55992 -6.95
20.59326 -6.95
20.62571 -6.95
20.65905 -6.95
20.68827 -6.95
20.72161 -6.95
20.75494 -6.95
20.78415 -6.95
20.81262 -6.95
20.84595 -6.95
20.87806 -6.95
20.91139 -6.95
20.94472 -6.95
20.97552 -6.95
21.00881 -6.95
21.03971 -6.95
21.07305 -6.95
21.10637 -6.95
21.13708 -6.95
21.16803 -6.95
21.1995 -6.95
21.23283 -6.95
21.26616 -6.95
21.29568 -6.95
21.32497 -6.95
21.3583 -6.95
21.39164 -6.95
21.42174 -6.95
21.45336 -6.95
21.48669 -6.95
21.52003 -6.95
21.55336 -6.95
21.58343 -6.95
21.61473 -6.95
21.64559 -6.95
21.67892 -6.95
21.71226 -6.95
21.74559 -6.95
21.77891 -6.95
21.80973 -6.95
21.84307 -6.95
21.8764 -6.95
21.90973 -6.95
21.93926 -6.95
21.9726 -6.95
22.00593 -6.95
22.03926 -6.95
22.0726 -6.95
22.10269 -6.95
22.13541 -6.95
22.16874 -6.95
22.20207 -6.95
22.23487 -6.95
22.26659 -6.95
22.29659 -6.95
22.32902 -6.95
22.36235 -6.95
22.39569 -6.95
22.42844 -6.95
22.46015 -6.95
22.49106 -6.95
22.52439 -6.95
22.55773 -6.95
22.58771 -6.95
22.61668 -6.95
22.64884 -6.95
22.68218 -6.95
22.71209 -6.95
22.74069 -6.95
22.77403 -6.95
22.80736 -6.95
22.84069 -6.95
22.87368 -6.95
22.90491 -6.95
22.93824 -6.95
22.97158 -6.95
23.00491 -6.95
23.03824 -6.95
23.07158 -6.95
23.10425 -6.95
23.13587 -6.95
23.1692 -6.95
23.20234 -6.95
23.23236 -6.95
23.26152 -6.95
23.29344 -6.95
23.32677 -6.95
23.35593 -6.95
23.38926 -6.95
23.41992 -6.95
23.45037 -6.95
23.4837 -6.95
23.51704 -6.95
23.5473 -6.95
23.58063 -6.95
23.61397 -6.95
23.6473 -6.95
23.68063 -6.95
23.71138 -6.95
23.74244 -6.95
23.77558 -6.95
23.80891 -6.95
23.84225 -6.95
23.87558 -6.95
23.90368 -6.95
23.93373 -6.95
23.96707 -6.95
23.99793 -6.95
24.02684 -6.95
24.06017 -6.95
24.09351 -6.95
24.12684 -6.95
24.15513 -6.95
24.18562 -6.95
24.21563 -6.95
24.24896 -6.95
24.28229 -6.95
24.31563 -6.95
24.34883 -6.95
24.37843 -6.95
24.40821 -6.95
24.44155 -6.95
24.47488 -6.95
24.50513 -6.95
24.53602 -6.95
24.56936 -6.95
24.60269 -6.95
24.63412 -6.95
24.66622 -6.95
24.69642 -6.95
24.72975 -6.95
24.76308 -6.95
24.79216 -6.95
24.82549 -6.95
24.85739 -6.95
24.88763 -6.95
24.92097 -6.95
24.953 -6.95
24.98633 -6.95
25.01966 -6.95
25.0522 -6.95
25.08554 -6.95
25.11887 -6.95
25.15167 -6.95
25.18001 -6.95
25.21334 -6.95
25.24668 -6.95
25.28001 -6.95
25.31334 -6.95
25.34668 -6.95
25.38001 -6.95
25.41334 -6.95
25.44396 -6.95
25.47384 -6.95
25.50718 -6.95
25.54051 -6.95
25.57384 -6.95
25.60718 -6.95
25.64051 -6.95
25.67385 -6.95
25.7035 -6.95
25.73629 -6.95
25.76667 -6.95
25.79617 -6.95
25.8295 -6.95
25.86283 -6.95
25.89617 -6.95
25.92735 -6.95
25.96068 -6.95
25.99402 -6.95
26.02599 -6.95
26.05933 -6.95
26.08797 -6.95
26.11886 -6.95
26.15219 -6.95
26.18553 -6.95
26.21538 -6.95
26.24755 -6.95
26.27841 -6.95
26.31174 -6.95
26.34508 -6.95
26.37608 -6.95
26.407 -6.95
26.43789 -6.95
26.47123 -6.95
26.50456 -6.95
26.5379 -6.95
26.56858 -6.95
26.59876 -6.95
26.63209 -6.95
26.66542 -6.95
26.69727 -6.95
26.72564 -6.95
26.75574 -6.95
26.78907 -6.95
26.82241 -6.95
26.85362 -6.95
26.88446 -6.95
26.91682 -6.95
26.95015 -6.95
26.98348 -6.95
27.01507 -6.95
27.0459 -6.95
27.07766 -6.95
27.11099 -6.95
27.14433 -6.95
27.17582 -6.95
27.20915 -6.95
27.23917 -6.95
27.2725 -6.95
27.30288 -6.95
27.33401 -6.95
27.36734 -6.95
27.40068 -6.95
27.43401 -6.95
27.46585 -6.95
27.49361 -6.95
27.52427 -7.2
27.55613 -7.2
27.58946 -7.6
27.61952 -9.6
27.65014 -9.6
27.68036 -11.35
27.71198 -12.85
27.74532 -12.85
27.77614 -14.6
27.80841 -16.15
27.83863 -16.15
27.86868 -17.65
27.90202 -19.65
27.93339 -19.65
27.96469 -20.75
27.99803 -20.75
28.03136 -23.55
28.06469 -24.9
28.09717 -26.85
28.12667 -26.85
28.15655 -28.6
28.18813 -28.6
28.22147 -30.1
28.2513 -31.2
28.28139 -31.2
28.31258 -32.1
28.34591 -32.75
28.37925 -32.75
28.41029 -32.75
28.44195 -32.75
28.47529 -32.75
28.50862 -32.75
28.54195 -32.75
28.57529 -32.75
28.60862 -32.75
28.63749 -32.75
28.67066 -32.75
28.70399 -32.75
28.73733 -32.75
28.7704 -32.75
28.80113 -32.75
28.83446 -32.75
28.86779 -32.75
28.8999 -32.75
28.93279 -32.75
28.96317 -32.75
28.99503 -32.75
29.02836 -32.75
29.05853 -32.75
29.09028 -32.75
29.11942 -32.75
29.15275 -32.75
29.18609 -32.75
29.21801 -32.75
29.2493 -32.75
29.28068 -32.75
29.31402 -32.75
29.34735 -32.75
29.37695 -32.75
29.40567 -32.75
29.43562 -32.75
29.46692 -32.75
29.50025 -32.75
29.53111 -32.75
29.5634 -32.75
29.59674 -32.75
29.62757 -32.75
29.6609 -32.75
29.69301 -32.75
29.7229 -32.75
29.75279 -32.75
29.78174 -32.75
29.81508 -32.75
29.84494 -32.75
29.87648 -32.75
29.90616 -32.75
29.9365 -32.75
29.96983 -32.75
29.99953 -32.75
30.03286 -32.75
30.06407 -32.75
30.0974 -32.75
30.13073 -32.75
30.15937 -32.75
30.1914 -32.75
30.22473 -32.75
30.25806 -32.75
30.2914 -32.75
30.32279 -32.75
30.35612 -32.75
30.38744 -32.75
30.4187 -32.75
30.45203 -32.75
30.48351 -32.75
30.51663 -32.75
30.54956 -32.75
30.58102 -32.75
30.61436 -32.75
30.64679 -32.75
30.67971 -32.75
30.71129 -32.75
30.74463 -32.75
30.77796 -32.75
30.80714 -32.75
30.83764 -32.75
30.86868 -32.75
30.90202 -32.95
30.93535 -32.95
30.96552 -32.95
30.99697 -33.2
31.02654 -34.25
31.05988 -34.25
31.09321 -35.8
31.12654 -38.2
31.15554 -38.2
31.1885 -41.05
31.22183 -44.55
31.25517 -47.6
31.28499 -47.6
31.31386 -50.85
31.34452 -50.85
31.37669 -53.05
31.41003 -54.8
31.4388 -54.8
31.47213 -56.55
31.50257 -57.85
31.5359 -57.85
31.56923 -59.15
31.60138 -60.25
31.63449 -60.25
31.66445 -60.5
31.69441 -60.5
31.72774 -60.5
31.75965 -59.85
31.79058 -59.85
31.81987 -59.85
31.8532 -60.05
31.88654 -61.35
31.91688 -61.35
31.94698 -62.25
31.98032 -62.65
32.01257 -62.65
32.0459 -62.45
32.07924 -62.65
32.11231 -62.65
32.14536 -63.1
32.1777 -63.3
32.21103 -63.3
32.24079 -63.3
32.27166 -63.3
32.30327 -63.3
32.33661 -63.3
32.36994 -63.3
32.40327 -63.3
32.43293 -63.3
32.46574 -63.55
32.49846 -63.55
32.53179 -63.75
32.56183 -63.75
32.59135 -64.2
32.62152 -64.65
32.6544 -64.65
32.68773 -64.85
32.71786 -65.05
32.7487 -65.05
32.78204 -65.5
32.81402 -66.15
32.84735 -66.15
32.87766 -66.8
32.91099 -67.25
32.9409 -67.25
32.97039 -67.7
33.00373 -67.7
33.03675 -67.7
33.06925 -67.7
33.09972 -67.7
33.13305 -67.7
33.16639 -67.7
33.19972 -67.7
33.23232 -67.7
33.26266 -67.7
33.29599 -67.7
33.32932 -67.7
33.35893 -67.7
33.39094 -67.7
33.42201 -67.7
33.45535 -67.7
33.48868 -67.7
33.52053 -67.7
33.55387 -67.7
33.58653 -67.7
33.61987 -67.7
33.6532 -67.7
33.68653 -67.7
33.71987 -67.7
33.74836 -67.7
33.7796 -67.7
33.81293 -67.7
33.84226 -67.7
33.87234 -67.7
33.90568 -67.7
33.93901 -67.7
33.97235 -67.7
34.0052 -67.7
34.03547 -67.7
34.06726 -67.7
34.097 -67.7
34.13033 -67.7
34.16057 -67.7
34.19297 -67.7
34.22403 -67.7
34.2548 -67.7
34.28814 -67.9
34.31913 -67.9
34.34968 -68.35
34.38301 -68.35
34.41579 -68.55
34.44912 -69
34.47853 -69
34.51186 -69.45
34.542 -69.9
34.57445 -69.9
34.60778 -70.3
34.63718 -70.75
34.66838 -70.75
34.70171 -70.95
34.73166 -71.65
34.76499 -71.65
34.79736 -72.05
34.83069 -73.15
34.86379 -73.15
34.89712 -74.05
34.93045 -74.7
34.96152 -76.2
34.99149 -76.2
35.02024 -77.3
35.05202 -77.3
35.08535 -78.4
35.11536 -78.85
35.14358 -78.85
35.17691 -78.85
35.21024 -78.85
35.24358 -78.85
35.27291 -78.85
35.30624 -78.85
35.33782 -78.85
35.3684 -78.85
35.40174 -78.85
35.43227 -78.85
35.4656 -78.85
35.49894 -78.85
35.53009 -78.85
35.56342 -78.85
35.59675 -78.85
35.62653 -78.85
35.65711 -78.85
35.68934 -78.85
35.72267 -78.85
35.75319 -78.85
35.78652 -78.85
35.81957 -78.85
35.85238 -79.05
35.88571 -79.7
35.91448 -79.7
35.94448 -80.35
35.97462 -81.25
36.00415 -81.25
36.03749 -82.1
36.06998 -83.2
36.10332 -83.2
36.13256 -84.3
36.1659 -85.4
36.19923 -85.4
36.23257 -86.5
36.26251 -87.15
36.29585 -87.15
36.32756 -88
36.36089 -88.9
36.39423 -88.9
36.42684 -89.3
36.46017 -89.55
36.49142 -89.55
36.52475 -89.75
36.55809 -89.75
36.59142 -89.75
36.62476 -89.75
36.65591 -89.75
36.68925 -89.75
36.72161 -89.75
36.75342 -90
36.78675 -90.4
36.82008 -90.4
36.85342 -90.85
36.88626 -91.3
36.91762 -91.3
36.9464 -91.95
36.97973 -92.6
37.01307 -92.6
37.04494 -93.25
37.07827 -93.9
37.1105 -93.9
37.14254 -94.35
37.17588 -95.2
37.20921 -95.85
37.24183 -95.85
37.27485 -96.3
37.30663 -96.3
37.33996 -96.75
37.37176 -96.75
37.40509 -96.75
37.43491 -96.75
37.46478 -96.75
37.49811 -96.95
37.52886 -96.95
37.55851 -97.4
37.58881 -97.4
37.62203 -98.05
37.65536 -98.7
37.68534 -98.7
37.71605 -99.35
37.74939 -100.25
37.78143 -100.25
37.81477 -100.9
37.84475 -101.75
37.87808 -101.75
37.91043 -102.85
37.94032 -103.75
37.97365 -103.75
38.00423 -105.5
38.03465 -107
38.0637 -107
38.09409 -108.1
38.12742 -109
38.15838 -109
38.19171 -110.05
38.22118 -110.05
38.25451 -110.3
38.28784 -110.3
38.32117 -110.05
38.35341 -110.05
38.3858 -109
38.41705 -107.45
38.45038 -107.45
38.48372 -105.7
38.51493 -104.15
38.54827 -104.15
38.57857 -102.65
38.6119 -102.2
38.64523 -102.2
38.67548 -102.2
38.70514 -102.2
38.73365 -102.2
38.76698 -102.2
38.79922 -102.45
38.82969 -102.45
38.85957 -102.65
38.89109 -102.65
38.92442 -103.3
38.95693 -103.75
38.98789 -103.75
39.01787 -103.95
39.04866 -103.95
39.08199 -103.95
39.11227 -103.95
39.14334 -103.95
39.1734 -103.95
39.20593 -103.95
39.23926 -103.95
39.27029 -103.95
39.30363 -104.15
39.33667 -104.4
39.37 -104.4
39.40334 -104.6
39.43667 -104.85
39.4667 -104.85
39.49566 -104.85
39.52779 -104.85
39.56112 -104.85
39.59072 -104.85
39.61989 -104.85
39.65039 -104.85
39.68372 -104.85
39.71705 -104.85
39.75039 -104.85
39.78372 -104.6
39.81401 -103.75
39.84734 -103.75
39.88067 -102.85
39.91401 -101.35
39.94734 -99.6
39.98067 -99.6
40.01231 -98.3
40.04564 -96.75
40.07839 -96.75
40.11169 -95.45
40.14502 -94.55
40.17698 -94.55
40.21032 -93.9
40.24327 -93.45
40.27281 -93.45
40.30614 -93.25
40.33908 -93.25
40.37241 -93.25
40.40352 -93.25
40.43646 -93.25
40.46979 -93.25
40.50016 -93.25
40.5335 -93.25
40.56478 -93.25
40.59587 -93.25
40.6252 -93.25
40.65443 -93.25
40.68777 -93.25
40.71895 -93.25
40.74885 -93.25
40.77806 -93.25
40.81037 -93.25
40.84371 -93.25
40.87486 -93.25
40.90498 -93.45
40.93831 -93.45
40.97165 -93.7
41.00498 -93.9
41.03831 -93.9
41.0687 -94.15
41.09949 -94.15
41.12993 -94.15
41.16326 -94.15
41.19436 -94.15
41.22769 -94.15
41.25701 -94.15
41.28578 -94.15
41.31911 -94.15
41.34933 -94.15
41.38116 -94.15
41.41084 -94.15
41.44417 -94.15
41.47751 -94.15
41.51084 -94.15
41.54417 -94.15
41.57634 -93.9
41.60801 -93.9
41.64135 -93.45
41.67468 -93.05
41.70802 -92.6
41.74135 -92.6
41.77055 -92.4
41.80389 -92.4
41.8364 -92.4
41.86745 -92.4
41.90078 -92.4
41.93106 -92.4
41.96439 -92.4
41.99772 -92.4
42.02725 -92.4
42.05563 -92.4
42.08896 -91.95
42.12229 -91.95
42.15524 -91.5
42.1845 -89.75
42.21424 -89.75
42.24757 -87.8
42.2809 -84.3
42.30987 -84.3
42.34266 -80.15
42.37599 -77.1
42.40847 -77.1
42.4418 -73.8
42.47252 -70.75
42.50537 -70.75
42.5387 -66.8
42.56913 -62.9
42.60246 -57.2
42.63425 -57.2
42.66606 -51.95
42.6958 -47.15
42.72647 -47.15
42.7598 -44.3
42.79027 -41.7
42.81992 -41.7
42.85069 -39.3
42.88079 -39.3
42.91413 -35.35
42.94352 -31.65
42.97593 -31.65
43.00703 -25.95
43.04036 -19.85
43.0737 -19.85
43.10466 -12.45
43.13563 -6.3
43.16551 -6.3
43.19514 1.95
43.22847 8.05
43.26181 8.05
43.29277 14.15
43.32587 14.15
43.35871 19
43.39205 22.25
43.42538 25.55
43.45871 25.55
43.49191 29.05
43.5243 31.65
43.55764 31.65
43.58726 35.6
43.61967 39.5
43.653 39.5
43.68302 43.65
43.71635 46.95
43.74969 46.95
43.77958 50.45
43.80913 54.35
43.83991 54.35
43.87324 58.5
43.90501 61.8
43.93519 61.8
43.96816 65.95
43.99841 69.2
44.03175 69.2
44.06244 74.9
44.09069 79.95
44.12395 79.95
44.15728 84.3
44.19062 88.9
44.22104 88.9
44.25272 94.8
44.28258 100.45
44.31591 100.45
44.34925 105.9
44.38161 110.05
44.41202 110.05
44.44333 114.2
44.47281 114.2
44.50615 118.8
44.53948 121.2
44.56904 121.2
44.59945 123.6
44.63211 125.6
44.66544 125.6
44.69492 127.35
44.72506 128.4
44.75692 128.4
44.78889 129.1
44.82222 129.5
44.85546 129.5
44.88638 129.5
44.91844 129.5
44.94761 129.5
44.98095 129.5
45.01201 129.5
45.04293 130.15
45.07271 131.25
45.10432 131.25
45.13765 133
45.16897 135.2
45.19958 135.2
45.22866 137.8
45.2594 140.2
45.29274 140.2
45.32551 143.3
45.35884 145.9
45.39218 145.9
45.42551 148.1
45.45884 150.25
45.49218 152
45.52265 152
45.55598 154.4
45.58913 156.6
45.62246 156.6
45.65266 158.15
45.68298 159.65
45.71498 159.65
45.74508 160.1
45.77842 160.1
45.81166 160.1
45.84103 160.1
45.86957 160.1
45.90047 160.3
45.93381 160.55
45.96711 160.55
45.99605 161.2
46.02723 162.05
46.05881 162.05
46.09214 162.95
46.12357 163.35
46.1569 163.35
46.18775 164.05
46.22108 164.45
46.25442 164.45
46.28597 165.35
46.31677 166.45
46.3484 166.45
46.3773 167.95
46.41063 167.95
46.44046 169.7
46.4738 170.8
46.50498 170.8
46.53751 171.65
46.57084 172.35
46.60256 172.55
46.63589 172.55
46.66666 172.55
46.69927 172.55
46.7326 172.55
46.76503 172.55
46.79837 172.55
46.8317 172.55
46.86156 172.35
46.89489 172.1
46.92566 172.1
46.957 171.65
46.98734 170.8
47.01643 170.8
47.04976 170.35
47.0831 169.5
47.11214 169.5
47.14077 169.05
47.17071 169.05
47.20404 168.6
47.23738 168.6
47.27071 168.6
47.30089 168.6
47.33172 168.6
47.36506 168.6
47.39479 168.6
47.42554 169.25
47.45766 169.25
47.48949 169.95
47.52283 170.35
47.555 170.35
47.58507 170.8
47.61501 171.25
47.64436 171.25
47.6777 171.45
47.71103 171.65
47.74436 172.1
47.77528 172.1
47.80861 173
47.8416 174.1
47.87109 174.1
47.90442 175.4
47.93775 176.25
47.97109 177.55
48.00442 177.55
48.03253 178.45
48.06586 179.3
48.09737 179.3
48.13071 181.05
48.16144 182.8
48.19477 182.8
48.22802 184.8
48.25919 185.85
48.29252 185.85
48.32521 188.3
48.35709 190.25
48.38604 190.25
48.41492 191.75
48.44825 193.75
48.47852 193.75
48.51131 195.25
48.54085 197
48.57408 197
48.60741 198.55
48.63802 200.3
48.67128 200.3
48.70461 200.95
48.73795 201.4
48.77128 201.4
48.80179 201.4
48.83473 201.4
48.86806 201.4
48.9014 201.4
48.93473 201.4
48.9649 201.4
48.99823 201.4
49.02703 201.4
49.0582 201.4
49.09153 201.8
49.12261 202.9
49.1526 202.9
49.18414 204.2
49.21687 206.85
49.2502 206.85
49.27945 209.45
49.3127 211.85
49.34426 211.85
49.37759 214.95
49.41092 216.9
49.43934 216.9
49.4697 218.4
49.49987 218.2
49.52951 218.2
49.56284 218.2
49.59346 218.4
49.62611 218.4
49.65826 218.4
49.69159 218.4
49.72492 218.4
49.75771 218.4
49.78875 218.4
49.81817 218.4
49.85087 218.4
49.8842 218.4
49.91506 218.4
49.94628 218.4
49.97961 218.4
50.01102 218.4
50.04435 218.4
50.07424 218.4
50.10757 218.4
50.13757 218.4
50.167 218.4
50.20033 218.4
50.23083 218.4
50.26298 218.4
50.29631 218.2
50.32452 218.2
50.35785 218.2
50.38781 218.2
50.4209 218.2
50.44938 218.2
50.48087 218.2
50.5142 218.2
50.54512 218.2
50.57405 218.4
50.60739 218.4
50.63745 218.4
50.67078 218.4
50.6989 218.4
50.73098 218.4
50.76085 218.4
50.79115 218.4
50.82448 218.4
50.85781 218.4
50.88865 218.4
50.92198 218.4
50.9508 218.4
50.98413 218.4
51.01747 218.4
51.04877 218.4
51.07891 218.4
51.10968 218.4
51.14301 218.4
51.1738 218.4
51.20423 218.4
51.2371 218.4
51.26787 218.4
51.3012 218.4
51.33453 218.4
51.36787 218.4
51.39862 218.4
51.42831 218.4
51.46165 218.4
51.49498 218.4
51.52812 218.4
51.56145 218.4
51.59221 218.4
51.62554 218.4
51.65694 218.4
51.68697 218.4
51.71904 218.4
51.75012 218.4
51.78345 218.4
51.81274 218.4
51.84207 218.4
51.87344 218.4
51.90542 218.4
51.93876 218.4
51.97115 218.4
52.00246 218.4
52.03528 218.4
52.06861 218.4
52.10195 218.4
52.13371 218.4
52.1663 218.4
52.19919 218.4
52.22734 218.4
52.26067 218.4
52.29187 218.4
52.32117 218.4
52.35015 218.4
52.38042 218.4
52.41375 218.4
52.44708 218.4
52.47545 218.4
52.5076 218.4
52.54006 218.4
52.57339 218.4
52.60432 218.4
52.63587 218.4
52.66731 218.4
52.70065 218.4
52.73398 218.4
52.76359 218.4
52.79692 218.4
52.82709 218.4
52.85838 218.4
52.89171 218.4
52.92443 218.4
52.95354 218.4
52.98687 218.4
53.02012 218.4
53.05346 218.4
53.08679 218.4
53.11554 218.4
53.14589 218.4
53.17923 218.4
53.21256 218.4
53.24191 218.4
53.27281 218.4
53.30486 218.4
53.33468 218.4
53.36801 218.4
53.39859 218.4
53.42864 218.4
53.46122 218.4
53.4912 218.4
53.52453 218.4
53.55787 218.4
53.58799 218.4
53.62003 218.4
53.65128 218.4
53.68461 218.4
53.71795 218.4
53.74574 218.4
53.77907 218.4
53.81087 218.4
53.8442 218.4
53.87753 218.4
53.90996 218.4
53.93937 218.4
53.9727 218.4
54.00603 218.4
54.03937 218.4
54.06959 218.4
54.09863 218.4
54.12937 218.4
54.1627 218.4
54.19438 218.4
54.2254 218.4
54.25873 218.4
54.29113 218.4
54.32446 218.4
54.3578 218.4
54.38712 218.4
54.42046 218.4
54.45379 218.4
54.48713 218.4
54.51717 218.4
54.5505 218.4
54.58107 218.4
54.61158 218.4
54.64491 218.4
54.67509 218.4
54.70578 218.4
54.73783 218.4
54.76711 218.4
54.80044 218.4
54.83114 218.4
54.86039 218.4
54.88882 218.4
54.92216 218.4
54.95549 218.4
54.98626 218.4
55.01879 218.4
55.05212 218.4
55.08448 218.4
55.11782 218.4
55.14884 218.4
55.18217 218.4
55.21471 218.4
55.24699 218.4
55.28032 218.4
55.31115 218.4
55.34309 218.4
55.3741 218.4
55.40386 218.4
55.43719 218.4
55.46817 218.4
55.5015 218.4
55.53106 218.4
55.56139 218.4
55.59473 218.4
55.62806 218.4
55.65975 218.4
55.69014 218.4
55.72102 218.4
55.75436 218.4
55.78769 218.4
55.81761 218.4
55.85094 218.4
55.88055 218.4
55.91388 218.4
55.94385 218.4
55.97634 218.4
56.00655 218.4
56.03631 218.4
56.06964 218.4
56.1006 218.4
56.13218 218.4
56.16551 218.4
56.19581 218.4
56.22915 218.4
56.25842 218.4
56.29176 218.4
56.32295 218.4
56.35425 218.4
56.38758 218.4
56.42092 218.4
56.45179 218.4
56.48513 218.4
56.51777 218.4
56.5511 218.4
56.5828 218.4
56.61613 218.4
56.64947 218.4
56.67942 218.4
56.71275 218.4
56.74278 218.4
56.77611 218.4
56.80504 218.4
56.83665 218.4
56.86998 218.4
56.89944 218.4
56.9282 218.4
56.96003 218.4
56.99333 218.4
57.02666 218.4
57.05676 218.4
57.0901 218.4
57.12343 218.4
57.15282 218.4
57.18616 218.4
57.21907 218.4
57.25061 218.4
57.2822 218.4
57.31458 218.4
57.34792 218.4
57.38125 218.4
57.41458 218.4
57.44422 218.4
57.47554 218.4
57.50888 218.4
57.54221 218.4
57.57281 218.4
57.60615 218.4
57.6379 218.4
57.67123 218.4
57.70002 218.4
57.73034 218.4
57.76056 218.4
57.79173 218.4
57.82507 218.4
57.85793 218.4
57.88845 218.4
57.91815 218.4
57.94809 218.4
57.98142 218.4
58.0117 218.4
58.04327 218.4
58.07657 218.4
58.1069 218.4
58.14023 218.4
58.17161 218.4
58.2011 218.4
58.23444 218.4
58.26777 218.4
58.3011 218.4
58.3308 218.4
58.3612 218.4
58.39186 218.4
58.42175 218.4
58.45508 218.4
58.48592 218.4
58.51925 218.4
58.55258 218.4
58.58449 218.4
58.61782 218.4
58.65115 218.4
58.6808 218.4
58.71413 218.4
58.74747 218.4
58.7808 218.4
58.81154 218.4
58.8409 218.4
58.87175 218.4
58.90372 218.4
58.93706 218.4
58.96734 218.4
58.99832 218.4
59.02835 218.4
59.06168 218.4
59.09501 218.4
59.12835 218.4
59.16168 218.4
59.19358 218.4
59.22474 218.4
59.25808 218.4
59.28924 218.4
59.32257 218.4
59.35067 218.4
59.38221 218.4
59.41554 218.4
59.44845 218.4
59.48178 218.4
59.51449 218.4
59.54566 218.4
59.57899 218.4
59.61232 218.4
59.64452 218.4
59.67785 218.4
59.70732 218.4
59.74065 218.4
59.77399 218.4
59.80732 218.4
59.83674 218.4
59.86775 218.4
59.90108 218.4
59.93364 218.4
59.96354 218.4
59.99238 218.4
60.02571 218.4
60.05904 218.4
60.0889 218.4
60.11926 218.4
60.15245 218.4
60.18491 218.4
60.21825 218.4
60.25158 218.4
60.28491 218.4
60.31824 218.4
60.34737 218.4
60.38071 218.4
60.4108 218.4
60.44413 218.4
60.47718 218.4
60.51051 218.4
60.54385 218.4
60.57718 218.4
60.61051 218.4
60.64032 218.4
60.671 218.4
60.70433 218.4
60.73381 218.4
60.7644 218.4
60.79498 218.4
60.82684 218.4
60.86017 218.4
60.89351 218.4
60.92684 218.4
60.9585 218.4
60.98818 218.4
61.02152 218.4
61.0541 218.4
61.08611 218.4
61.11585 218.4
61.14918 218.4
61.18251 218.4
61.21328 218.4
61.24661 218.4
61.27591 218.4
61.30924 218.4
61.34257 218.4
61.37263 218.4
61.40241 218.4
61.43509 218.2
61.46539 218.2
61.49873 218.2
61.52703 218.2
61.55757 218.2
61.58749 218.2
61.6172 218.2
61.65053 218.2
61.68386 218.4
61.71719 218.4
61.74993 218.4
61.77873 218.4
61.81207 218.4
61.84372 218.4
61.87351 218.4
61.90216 218.4
61.93385 218.4
61.96718 218.4
62.00005 218.4
62.02914 218.4
62.06105 218.4
62.09438 218.4
62.12771 218.4
62.15961 218.4
62.19295 218.4
62.22618 218.4
62.25884 218.4
62.29218 218.4
62.32391 218.4
62.35425 218.4
62.38544 218.4
62.41616 218.4
62.44949 218.4
62.48101 218.4
62.51145 218.4
62.54186 218.2
62.57519 218.2
62.60852 218.2
62.63774 217.75
62.66941 217.75
62.70274 216.25
62.73376 214.05
62.76709 212.1
62.80043 212.1
62.83219 209.25
62.86486 207.5
62.89748 207.5
62.93081 205.75
62.96415 204.65
62.99488 204.65
63.02704 204
63.06027 203.55
63.09361 203.55
63.12484 202.5
63.15713 201.4
63.18937 201.4
63.2219 200.75
63.25524 200.05
63.28542 200.05
63.31497 199.85
63.34476 199.85
63.37554 199.85
63.40888 200.05
63.43908 200.05
63.47213 200.05
63.50446 200.3
63.53433 200.3
63.56766 200.5
63.60099 200.95
63.63194 200.95
63.6646 201.4
63.69648 201.6
63.72981 201.6
63.76037 201.8
63.7937 202.05
63.82495 202.05
63.85828 202.05
63.89161 202.05
63.92209 202.05
63.95072 202.05
63.98151 202.05
64.01128 202.05
64.04461 202.25
64.07724 202.5
64.10778 202.5
64.13972 202.9
64.17007 202.9
64.2034 203.15
64.23308 203.15
64.26277 203.15
64.29334 203.15
64.32668 203.15
64.36001 203.15
64.39236 203.15
64.42569 203.15
64.45512 203.15
64.48669 203.15
64.52002 203.15
64.55109 203.15
64.57977 203.15
64.61214 203.15
64.64465 203.15
64.67798 203.15
64.71131 203.15
64.74464 203.15
64.77744 203.15
64.80876 203.15
64.84209 203.15
64.87491 203.15
64.90652 203.15
64.93583 203.15
64.96435 203.15
64.99768 203.15
65.02737 203.15
65.0607 203.15
65.08974 203.15
65.12059 203.15
65.15392 202.9
65.18328 202.5
65.21299 202.5
65.24526 201.6
65.27793 200.5
65.31126 200.5
65.34033 200.05
65.37366 199.4
65.407 199.4
65.43959 199.4
65.47292 199.4
65.50368 199.4
65.53451 199.4
65.56583 199.4
65.59468 199.4
65.62801 199.4
65.65965 199.85
65.68968 199.85
65.71853 200.3
65.74892 200.3
65.78226 200.3
65.8131 200.5
65.84643 200.5
65.87894 200.5
65.91227 200.5
65.9456 200.5
65.9786 200.5
66.01193 200.5
66.04311 200.3
66.07571 200.3
66.10904 199.85
66.14054 198.75
66.17124 198.75
66.2011 197.25
66.22984 197.25
66.26317 195.05
66.29385 193.1
66.32555 190.9
66.35489 190.9
66.38664 188.5
66.41998 186.3
66.45163 186.3
66.48215 182.4
66.51485 182.4
66.54579 179.55
66.57912 175.8
66.60806 175.8
66.63947 172.75
66.6702 169.7
66.70181 169.7
66.73515 167.1
66.76656 162.95
66.79902 162.95
66.83088 158.8
66.85968 155.3
66.89301 155.3
66.92635 151.15
66.95663 147.2
66.98739 147.2
67.01866 142.4
67.05199 136.3
67.08533 129.5
67.11351 129.5
67.14377 124.05
67.1771 124.05
67.21043 118.15
67.24097 110.95
67.27431 103.95
67.30697 103.95
67.3403 93.7
67.37363 85.6
67.40609 85.6
67.43651 77.3
67.46841 70.75
67.50175 70.75
67.53508 66.6
67.56841 59.6
67.59875 59.6
67.62795 54.8
67.66129 48.45
67.69462 48.45
67.72495 38.65
67.7548 29.9
67.78506 29.9
67.81539 18.75
67.84873 10.9
67.8778 10.9
67.90836 3.7
67.93803 3.7
67.96951 -4.15
68.00284 -10.45
68.03396 -15.05
68.06729 -15.05
68.09699 -18.55
68.12688 -18.55
68.16022 -22.5
68.19116 -25.75
68.22173 -25.75
68.25507 -27.3
68.28744 -27.7
68.32077 -28.15
68.35137 -28.15
68.3801 -28.35
68.41343 -28.35
68.44487 -29.25
68.4782 -30.55
68.50693 -33.2
68.53799 -33.2
68.56974 -35.8
68.6026 -35.8
68.63593 -39.75
68.66788 -43.65
68.69793 -43.65
68.73114 -46.95
68.76095 -51.95
68.79428 -56.35
68.82537 -56.35
68.85648 -62.25
68.88514 -62.25
68.91847 -67.25
68.95181 -71.4
68.98273 -71.4
69.0125 -76.2
69.04408 -79.95
69.07732 -79.95
69.11065 -84.95
69.13999 -90.2
69.17332 -90.2
69.20647 -94.15
69.23758 -98.05
69.27091 -98.05
69.30156 -101.55
69.33428 -104.4
69.36761 -104.4
69.39835 -107.65
69.43169 -110.05
69.4644 -110.05
69.49682 -113.35
69.52686 -116.65
69.56019 -116.65
69.59352 -118.6
69.62686 -120.1
69.65818 -120.1
69.69044 -121
69.7217 -121.2
69.75504 -121.2
69.78837 -121.45
69.81971 -121.65
69.85135 -121.65
69.88107 -121.65
69.91441 -121.65
69.94774 -121.65
69.98107 -121.65
70.01246 -121.65
70.04479 -121.65
70.07813 -121.65
70.11147 -121.65
70.14448 -121.65
70.17781 -121.65
70.20837 -121.65
70.24171 -121.65
70.27215 -121.65
70.30192 -121.65
70.33525 -121.65
70.36858 -121.65
70.40192 -121.65
70.4301 -121.65
70.46343 -121.65
70.49345 -121.65
70.52534 -121.65
70.55867 -121.65
70.5911 -121.65
70.62444 -121.65
70.65674 -121.65
70.68928 -121.65
70.72261 -121.65
70.75541 -121.65
70.78599 -121.65
70.81733 -121.65
70.85019 -121.65
70.88352 -121.65
70.91445 -121.65
70.94566 -121.65
70.97802 -121.65
71.01135 -121.65
71.04469 -121.65
71.07462 -121.65
71.10796 -121.65
71.13846 -121.65
71.16846 -121.65
71.2018 -121.65
71.23325 -121.65
71.26659 -121.65
71.29616 -121.65
71.32704 -121.65
71.36037 -121.65
71.39371 -121.65
71.42301 -121.65
71.45135 -121.65
71.48224 -121.65
71.51557 -121.65
71.5489 -121.65
71.58054 -122.1
71.61375 -122.1
71.64708 -123.85
71.68041 -125.35
71.70926 -125.35
71.74027 -127.75
71.77361 -130.15
71.80327 -130.15
71.8366 -132.35
71.86681 -135.85
71.89792 -135.85
71.92757 -140.65
71.95675 -140.65
71.99008 -145.7
72.02341 -150.5
72.05351 -150.5
72.0834 -153.75
72.11457 -157.5
72.1479 -157.5
72.1812 -160.75
72.21174 -163.35
72.24366 -163.35
72.27405 -165.8
72.30738 -169.95
72.33958 -169.95
72.37285 -172.1
72.40521 -174.3
72.43491 -174.3
72.46825 -175.4
72.50066 -176.05
72.53361 -176.05
72.56695 -176.25
72.60028 -176.5
72.63361 -176.5
72.66695 -176.7
72.69835 -177.15
72.72694 -177.15
72.7584 -177.8
72.79173 -178.9
72.82507 -181.05
72.8584 -181.05
72.89174 -183.7
72.92507 -186.95
72.95386 -186.95
72.98285 -190
73.01569 -193.95
73.04772 -193.95
73.08105 -197
73.1127 -200.75
73.14603 -200.75
73.17937 -203.8
73.21201 -206.85
73.24535 -206.85
73.27496 -209.45
73.3075 -211.45
73.34083 -211.45
73.37416 -212.5
73.40749 -213.85
73.43812 -215.6
73.46873 -215.6
73.49903 -217.35
73.53236 -217.35
73.5657 -218.4
73.59866 -218.4
73.62708 -218.4
73.66042 -218.4
73.69375 -218.4
73.72708 -218.4
73.75812 -218.4
73.79102 -218.4
73.8232 -218.4
73.85287 -218.4
73.88621 -218.4
73.91747 -218.4
73.94955 -218.4
73.98289 -218.4
74.01311 -218.4
74.04644 -218.4
74.07977 -218.4
74.10896 -218.4
74.1423 -218.4
74.17441 -218.4
74.20775 -218.4
74.23983 -218.4
74.26989 -218.4
74.3015 -218.4
74.33483 -218.4
74.36816 -218.4
74.39765 -218.4
74.43098 -218.4
74.46432 -218.4
74.4947 -218.4
74.52803 -218.4
74.55794 -218.4
74.58793 -218.4
74.61734 -218.4
74.64907 -218.4
74.6824 -218.4
74.71574 -218.4
74.74817 -218.4
74.77917 -218.4
74.8112 -218.4
74.84454 -218.4
74.87787 -218.4
74.90677 -218.4
74.93995 -218.4
74.97129 -218.4
75.00462 -218.4
75.03501 -218.4
75.06834 -218.4
75.10167 -218.4
75.135 -218.4
75.16833 -218.4
75.19997 -218.4
75.23289 -218.4
75.26474 -218.4
75.29426 -218.4
75.32759 -218.4
75.35841 -218.4
75.39174 -218.4
75.42038 -218.4
75.45067 -218.4
75.484 -218.4
75.51678 -218.4
75.54566 -218.4
75.57632 -218.4
75.60914 -218.4
75.64247 -218.4
75.67574 -218.4
75.70824 -218.4
75.73875 -218.4
75.77209 -218.4
75.80542 -218.4
75.83768 -218.4
75.87102 -218.4
75.90137 -218.4
75.93085 -218.4
75.96419 -218.4
75.99626 -218.4
76.0261 -218.4
76.05537 -218.4
76.08622 -218.4
76.11955 -218.4
76.1506 -218.4
76.18255 -218.4
76.21563 -218.4
76.24896 -218.4
76.2823 -218.4
76.31204 -218.4
76.34538 -218.4
76.37622 -218.4
76.40916 -218.4
76.44249 -218.4
76.47333 -218.4
76.50402 -218.4
76.53735 -218.4
76.56707 -218.4
76.6004 -218.4
76.63367 -218.4
76.66557 -218.4
76.69532 -218.4
76.72805 -218.4
76.76138 -218.4
76.79098 -218.4
76.8213 -218.4
76.85351 -218.4
76.88535 -218.4
76.91869 -218.4
76.94777 -218.4
76.97976 -218.4
77.01309 -218.4
77.04331 -218.4
77.07664 -218.4
77.10998 -218.4
77.14063 -218.4
77.17058 -218.4
77.20269 -218.4
77.23602 -218.4
77.26643 -218.4
77.29763 -218.4
77.32946 -218.4
77.36279 -218.4
77.39613 -218.4
77.42947 -218.4
77.45821 -218.4
77.49093 -218.4
77.52135 -218.4
77.55469 -218.4
77.58802 -218.4
77.62135 -218.4
77.65055 -218.4
77.67972 -218.4
77.71305 -218.4
77.74638 -218.4
77.77972 -218.4
77.81175 -218.4
77.84332 -218.4
77.87666 -218.4
77.90999 -218.4
77.93964 -218.4
77.97088 -218.4
78.00125 -218.4
78.03458 -218.4
78.06463 -218.4
78.09527 -218.4
78.12655 -218.4
78.15906 -218.4
78.19239 -218.4
78.22379 -218.4
78.25712 -218.4
78.28871 -218.4
78.32085 -218.4
78.35419 -218.4
78.38752 -218.4
78.41978 -218.4
78.45048 -218.4
78.48158 -218.4
78.51492 -218.4
78.54681 -218.4
78.5775 -218.4
78.60916 -218.4
78.6421 -218.4
78.67543 -218.4
78.70751 -218.4
78.73768 -218.4
78.77075 -218.4
78.80408 -218.4
78.83742 -218.4
78.8701 -218.4
78.90094 -218.4
78.93131 -218.4
78.96265 -218.4
78.99598 -218.4
79.02684 -218.4
79.06017 -218.4
79.09074 -218.4
79.1227 -218.4
79.15604 -218.4
79.18932 -218.4
79.219 -218.4
79.24743 -218.4
79.28076 -218.4
79.31409 -218.4
79.34743 -218.4
79.37717 -218.4
79.4105 -218.4
79.44383 -218.4
79.47717 -218.4
79.50509 -218.4
79.53532 -218.4
79.56778 -218.4
79.59741 -218.4
79.63074 -218.4
79.66134 -218.4
79.69467 -218.4
79.728 -218.4
79.76134 -218.4
79.79467 -218.4
79.828 -218.4
79.85778 -218.4
79.88753 -218.4
79.92086 -218.4
79.95419 -218.4
79.98603 -218.4
80.01842 -218.4
80.05054 -218.4
80.08387 -218.4
80.1172 -218.4
80.15014 -218.4
80.18273 -218.4
80.21606 -218.4
80.24496 -218.4
80.27829 -218.4
80.30832 -218.4
80.33821 -218.4
80.36765 -218.4
80.39619 -218.4
80.42952 -218.4
80.45999 -218.4
80.49086 -218.4
80.52096 -218.4
80.55337 -218.4
80.5867 -218.4
80.62003 -218.4
80.651 -218.4
80.68204 -218.4
80.71463 -218.4
80.74796 -218.4
80.77639 -218.4
80.80972 -218.4
80.84004 -218.4
80.8713 -218.4
80.90463 -218.4
80.93639 -218.4
80.96973 -218.4
81.00018 -218.4
81.0292 -218.4
81.06253 -218.4
81.09536 -218.4
81.1254 -218.4
81.15433 -218.4
81.18657 -218.4
81.21991 -218.4
81.24909 -218.4
81.2785 -218.4
81.30875 -218.4
81.34139 -218.4
81.37473 -218.4
81.40649 -218.4
81.43982 -218.4
81.4719 -218.4
81.50523 -218.4
81.53857 -218.4
81.5693 -218.4
81.60264 -218.4
81.63264 -218.4
81.66434 -218.4
81.69768 -218.4
81.72872 -218.4
81.75857 -218.4
81.7919 -218.4
81.82523 -218.4
81.85857 -218.4
81.8919 -218.4
81.921 -218.4
81.95336 -218.4
81.98647 -218.4
82.0198 -218.4
82.04981 -218.4
82.08174 -218.4
82.11359 -218.4
82.14462 -218.4
82.17796 -218.4
82.20935 -218.4
82.24268 -218.4
82.27602 -218.4
82.30494 -218.4
82.33828 -218.4
82.37161 -218.4
82.40037 -218.4
82.42872 -218.4
82.46206 -218.4
82.49539 -218.4
82.52872 -218.4
82.5573 -218.4
82.58743 -218.4
82.62076 -218.4
82.65409 -218.4
82.68342 -218.4
82.71551 -218.4
82.74884 -218.4
82.77792 -218.4
82.81125 -218.4
82.84428 -218.4
82.87481 -218.4
82.90403 -218.4
82.9319 -218.4
82.96523 -218.4
82.99625 -218.4
83.02605 -218.4
83.057 -218.4
83.08838 -218.4
83.12171 -218.4
83.15173 -218.4
83.18169 -218.4
83.21503 -218.4
83.24666 -218.4
83.27999 -218.4
83.31196 -218.4
83.34176 -218.4
83.37214 -218.4
83.40423 -218.4
83.43756 -218.2
83.46818 -218.2
83.49788 -218.2
83.5298 -218.2
83.56313 -218.2
83.59647 -218.2
83.62881 -218.2
83.66013 -218.2
83.68932 -218.2
83.72266 -218.2
83.75599 -218.2
83.78558 -218.2
83.81892 -218.2
83.85225 -218.2
83.88558 -218.2
83.91891 -218.2
83.95225 -218.2
83.98558 -218.2
84.01618 -218.2
84.04892 -218.2
84.08225 -218.2
84.11361 -218.2
84.14491 -218.2
84.17489 -218.2
84.20382 -218.2
84.23716 -218.2
84.2675 -218.2
84.29908 -218.4
84.32742 -218.4
84.35853 -218.4
84.39186 -218.4
84.4227 -218.4
84.45368 -218.4
84.48701 -218.4
84.51726 -218.4
84.55059 -218.4
84.58072 -218.4
84.6126 -218.4
84.64594 -218.4
84.67525 -218.4
84.70858 -218.4
84.74075 -218.4
84.77067 -218.4
84.80258 -218.4
84.83428 -218.4
84.86761 -218.4
84.89892 -218.4
84.92859 -218.4
84.96023 -218.4
84.99356 -218.4
85.02689 -218.4
85.05775 -218.4
85.0869 -218.4
85.11819 -218.4
85.14836 -218.4
85.18169 -218.4
85.2136 -218.4
85.24523 -218.4
85.2776 -218.4
85.31093 -218.4
85.34426 -218.4
85.3753 -218.4
85.40718 -218.4
85.44051 -218.4
85.47163 -218.4
85.50497 -218.4
85.53699 -218.4
85.56995 -218.4
85.60062 -218.4
85.63334 -218.4
85.66667 -218.4
85.69583 -218.4
85.72397 -218.4
85.75477 -218.4
85.78693 -218.4
85.82027 -218.4
85.8504 -218.4
85.88373 -218.4
85.91634 -218.4
85.94595 -218.4
85.97928 -218.4
86.01118 -218.4
86.04209 -218.4
86.07163 -218.4
86.10139 -218.4
86.13472 -218.4
86.16626 -218.4
86.19917 -218.4
86.23 -218.4
86.26334 -218.4
86.29667 -218.4
86.32838 -218.4
86.35667 -218.4
86.39001 -218.4
86.42062 -218.4
86.45395 -218.4
86.48331 -218.4
86.51664 -218.4
86.54689 -218.4
86.57721 -218.4
86.61054 -218.4
86.64321 -218.4
86.67654 -218.4
86.7067 -218.4
86.73737 -218.4
86.7707 -218.4
86.80403 -218.4
86.83392 -218.4
86.86592 -218.4
86.89697 -218.4
86.9303 -218.4
86.95956 -218.4
86.99289 -218.4
87.0239 -218.4
87.05386 -218.4
87.0872 -218.4
87.11603 -218.4
87.14936 -218.4
87.18056 -218.4
87.21016 -218.4
87.24349 -218.4
87.27364 -218.4
87.30617 -218.4
87.33672 -218.4
87.36973 -218.4
87.40306 -218.4
87.43413 -218.4
87.46706 -218.4
87.49622 -218.4
87.52937 -218.4
87.5627 -218.4
87.59129 -218.4
87.62251 -218.4
87.65584 -218.4
87.68566 -218.4
87.71899 -218.4
87.74883 -218.4
87.77885 -218.4
87.81218 -218.4
87.84169 -218.4
87.87502 -218.4
87.90533 -218.4
87.93688 -218.4
87.97021 -218.4
88.00119 -218.4
88.03452 -218.4
88.06607 -218.2
88.09574 -218.2
88.12595 -218.2
88.15929 -218.2
88.19262 -218.2
88.22208 -218.2
88.25074 -218.2
88.28315 -216.9
88.31428 -214.95
88.34761 -214.95
88.3773 -213.2
88.41064 -211.65
88.44035 -211.65
88.4705 -210.55
88.50383 -210.1
88.53716 -210.1
88.5705 -209.9
88.60137 -209.9
88.6299 -209.9
88.66323 -209.9
88.69595 -209.9
88.72645 -209.9
88.7551 -209.7
88.78844 -207.95
88.82177 -207.95
88.8551 -205.1
88.88844 -201.4
88.92092 -201.4
88.95425 -196.35
88.98759 -191.75
89.0157 -191.75
89.04675 -185.2
89.07704 -185.2
89.11038 -177.35
89.14371 -170.6
89.17705 -162.3
89.20926 -162.3
89.24109 -154.2
89.27285 -154.2
89.30618 -146.55
89.33952 -141.55
89.37285 -138.9
89.40208 -138.9
89.43317 -134.3
89.46651 -130.8
89.49588 -130.8
89.52485 -124.7
89.55521 -118.6
89.58847 -118.6
89.6218 -111.6
89.64921 -111.6
89.67937 -105.9
89.70898 -98.7
89.7416 -98.7
89.77493 -94.8
89.80444 -87.8
89.83611 -87.8
89.86746 -82.1
89.8971 -82.1
89.93044 -77.5
89.96062 -72.05
89.98935 -72.05
90.01707 -65.75
90.05031 -60.5
90.08364 -60.5
90.11697 -53.95
90.14558 -46.95
90.17632 -46.95
90.20657 -40.8
90.23991 -32.95
90.2684 -32.95
90.29778 -25.55
90.33112 -25.55
90.36069 -18.1
90.39403 -12.2
90.42628 -12.2
90.45944 -4.15
90.4894 3.05
90.52274 3.05
90.55607 7.85
90.58627 11.55
90.61751 11.55
90.65044 12.85
90.68282 14.15
90.71616 15.5
90.74487 15.5
90.77446 17.9
90.80779 17.9
90.84113 19.4
90.87446 21.15
90.90398 21.15
90.93375 22.9
90.96374 24.2
90.99298 24.2
91.02631 25.75
91.05872 27.5
91.08946 27.5
91.119 28.35
91.1476 28.35
91.18094 29.9
91.21344 30.35
91.24677 30.55
91.27859 30.55
91.30869 30.55
91.34203 30.55
91.37072 30.55
91.39888 30.55
91.43107 30.55
91.4644 30.35
91.49773 29.9
91.5266 29.9
91.55994 29.7
91.59218 29.25
91.62399 29.25
91.65732 28.8
91.69051 28.6
91.72384 28.6
91.75248 28.15
91.7809 27.95
91.81423 27.95
91.84348 27.7
91.87682 27.5
91.90827 27.5
91.9416 27.05
91.97494 26.85
92.00577 26.85
92.03623 26.65
92.06641 26.65
92.09974 26.2
92.13308 25.95
92.16209 25.95
92.19501 25.75
92.2254 25.55
92.25536 25.55
92.28869 25.3
92.31822 24.9
92.35155 24.9
92.38108 24.45
92.41122 24.45
92.44456 24
92.47325 23.55
92.50491 23.35
92.53362 23.35
92.56696 23.15
92.60029 22.7
92.63362 22.7
92.66695 22.5
92.70029 22.5
92.73362 22.5
92.76259 22.5
92.79592 22.5
92.82925 22.5
92.85896 22.5
92.8923 22.5
92.92469 22.5
92.9563 22.5
92.98824 22.5
93.01822 22.5
93.05155 22.5
93.08488 22.5
93.11822 22.5
93.15155 22.5
93.18317 22.5
93.21651 22.5
93.24984 22.5
93.27957 22.5
93.31009 22.5
93.34342 22.5
93.37675 22.5
93.40569 22.5
93.43396 22.5
93.46729 22.5
93.498 22.5
93.53133 22.5
93.56113 22.5
93.59446 22.5
93.62569 22.5
93.65902 22.5
93.69236 22.5
93.72569 22.5
93.75903 22.5
93.78899 22.5
93.81747 22.5
93.85081 22.5
93.884 22.5
93.91734 22.5
93.94666 22.5
93.97901 22.5
94.01234 22.5
94.0418 22.5
94.06934 22.5
94.10011 22.5
94.13122 22.5
94.16455 22.5
94.19788 22.5
94.23009 22.5
94.26208 22.5
94.29213 22.5
94.32546 22.5
94.35548 22.5
94.38805 22.5
94.41763 22.5
94.44726 22.5
94.48059 22.5
94.5124 22.5
94.54573 22.5
94.57898 22.5
94.61231 22.5
94.64565 22.5
94.67862 22.5
94.70781 22.5
94.73815 22.5
94.77148 22.5
94.80482 22.5
94.83485 22.5
94.86546 22.5
94.89879 22.5
94.92797 22.5
94.9613 22.5
94.9939 22.5
95.02686 22.5
95.05663 22.5
95.08633 22.5
95.11966 22.5
95.15299 22.5
95.18539 22.5
95.21515 22.5
95.24629 22.5
95.27962 22.5
95.30884 22.5
95.33678 22.5
95.36678 22.5
95.39693 22.5
95.43026 22.5
95.45817 22.5
95.48804 22.5
95.51817 22.5
95.54956 22.5
95.58289 22.5
95.61356 22.5
95.64421 22.5
95.67332 22.5
95.70424 22.5
95.73757 22.5
95.76803 22.5
95.79919 22.5
95.83042 22.5
95.86279 22.5
95.89612 22.5
95.92548 22.5
95.95367 22.5
95.98361 22.5
96.01409 22.5
96.04742 22.5
96.07536 22.5
96.1055 22.5
96.13504 22.5
96.16645 22.5
96.19978 22.5
96.23312 22.5
96.26187 22.5
96.29165 22.5
96.32421 22.5
96.35754 22.5
96.39088 22.5
96.42025 22.5
96.44797 22.5
96.47819 22.5
96.51152 22.5
96.5403 22.5
96.57363 22.5
96.60696 22.5
96.63675 22.5
96.67008 22.5
96.70271 22.5
96.7352 22.5
96.76762 22.5
96.79845 22.5
96.83179 22.5
96.86147 22.5
96.8948 22.5
96.92337 22.5
96.95653 22.5
96.98986 22.5
97.02319 22.5
97.05653 22.5
97.08469 22.5
97.11465 22.5
97.14799 22.5
97.1786 22.5
97.20779 22.5
97.24112 22.5
97.27445 22.5
97.30779 22.5
97.34099 22.5
97.37169 22.5
97.4026 22.5
97.43196 22.5
97.46529 22.5
97.496 22.5
97.5259 22.5
97.55759 22.5
97.58584 22.5
97.61917 22.5
97.64943 22.5
97.67874 22.5
97.70782 22.5
97.73875 22.5
97.77208 22.5
97.80215 22.5
97.83101 22.5
97.86134 22.5
97.89467 22.5
97.928 22.5
97.95609 22.5
97.9882 22.5
98.02154 22.5
98.05488 22.5
98.08821 22.5
98.12154 22.5
98.15488 22.5
98.18571 22.5
98.21434 22.5
98.24767 22.5
98.27961 22.5
98.31245 22.5
98.34171 22.5
98.37276 22.5
98.40609 22.5
98.43715 22.5
98.46853 22.5
98.50175 22.5
98.53508 22.5
98.56841 22.5
98.59675 22.5
98.62732 22.5
98.66065 22.5
98.69061 22.5
98.72395 22.5
98.75441 22.5
98.78519 22.5
98.8161 22.5
98.84468 22.5
98.87801 22.5
98.90793 22.5
98.93805 22.5
98.96804 22.5
98.99805 22.5
99.03138 22.5
99.06007 22.5
99.091 22.5
99.12406 22.5
99.15739 22.5
99.19073 22.5
99.22255 22.5
99.25459 22.5
99.28623 22.5
99.31625 22.5
99.34956 22.5
99.38013 22.5
99.4101 22.5
99.44324 22.5
99.47539 22.5
99.50873 22.5
99.53923 22.5
99.57256 22.5
99.60035 22.5
99.63026 22.5
99.6636 22.5
99.69237 22.5
99.72033 22.5
99.75298 22.5
99.78631 22.5
99.81964 22.5
99.84785 22.5
99.87889 22.5
99.90798 22.5
99.94131 22.5
99.97465 22.5
100.006 22.5
100.0381 22.5
100.0701 22.5
100.1008 22.5
100.1341 22.5
100.1641 22.5
100.1974 22.5
100.2272 22.5
100.2606 22.5
100.2939 22.5
100.3233 22.5
100.3515 22.5
100.3842 22.5
100.4174 22.5
100.4508 22.5
100.4801 22.5
100.51 22.5
100.5433 22.5
100.5729 22.5
100.6062 22.5
100.6395 22.5
100.6729 22.5
100.7062 22.5
100.7341 22.5
100.7674 22.5
100.8007 22.5
100.8299 22.5
100.8632 22.5
100.896 22.5
100.9293 22.5
100.9574 22.5
100.9873 22.5
101.0184 22.5
101.0496 22.5
101.0829 22.5
101.1114 22.5
101.1428 22.5
101.1724 22.5
101.2057 22.5
101.2386 22.5
101.2693 22.5
101.299 22.5
101.329 22.5
101.3576 22.5
101.391 22.5
101.4216 22.5
101.455 22.5
101.4845 22.5
101.5179 22.5
101.5512 22.5
101.5834 22.5
101.6111 22.5
101.644 22.5
101.6751 22.5
101.7085 22.5
101.7359 22.5
101.7682 22.5
101.8002 22.5
101.8318 22.5
101.8651 22.5
101.8967 22.5
101.93 22.5
101.9578 22.5
101.9873 22.5
102.0207 22.5
102.054 22.5
102.0868 22.5
102.1146 22.5
102.1479 22.5
102.1812 22.5
102.2094 22.5
102.2422 22.5
102.2717 22.5
102.3032 22.5
102.3365 22.5
102.3653 22.5
102.3952 22.5
102.4255 22.5
102.4588 22.5
102.4921 22.5
102.5211 22.5
102.5532 22.5
102.5813 22.5
102.6089 22.5
102.6422 22.5
102.6755 22.5
102.7088 22.5
102.7381 22.5
102.7695 22.5
102.8028 22.5
102.8327 22.5
102.8634 22.5
102.8967 22.5
102.9301 22.5
102.9634 22.5
102.9949 22.5
103.0283 22.5
103.0616 22.5
103.09 22.5
103.123 22.5
103.1548 22.5
103.1874 22.5
103.219 22.5
103.2473 22.5
103.2806 22.5
103.3102 22.5
103.3386 22.5
103.3685 22.5
103.4018 22.5
103.4351 22.5
103.4641 22.5
103.4915 22.5
103.5248 22.5
103.5582 22.5
103.5915 22.5
103.6198 22.5
103.6525 22.5
103.6817 22.5
103.7119 22.5
103.7449 22.5
103.7748 22.5
103.8044 22.5
103.8334 22.5
103.861 22.5
103.8911 22.5
103.9244 22.5
103.957 22.5
103.9875 22.5
104.0208 22.5
104.052 22.5
104.0853 22.5
104.1183 22.5
104.1479 22.5
104.1769 22.5
104.208 22.5
104.2414 22.5
104.2719 22.5
104.3052 22.5
104.3341 22.5
104.3614 22.5
104.3947 22.5
104.4251 22.5
104.4582 22.5
104.4857 22.5
104.5183 22.5
104.5516 22.5
104.5792 22.5
104.6073 22.5
104.6379 22.5
104.6667 22.5
104.7 22.5
104.729 22.5
104.76 22.5
104.7928 22.5
104.826 22.5
104.8594 22.5
104.889 22.5
104.9223 22.5
104.9506 22.5
104.9786 22.5
105.0119 22.5
105.0415 22.5
105.0693 22.5
105.0973 22.5
105.1307 22.5
105.164 22.5
105.193 22.5
105.222 22.5
105.2545 22.5
105.2878 22.5
105.3212 22.5
105.3514 22.5
105.3808 22.5
105.4136 22.5
105.4431 22.5
105.4764 22.5
105.5063 22.5
105.5366 22.5
105.5652 22.5
105.5938 22.5
105.6272 22.5
105.6605 22.5
105.6921 22.5
105.7197 22.5
105.7497 22.5
105.7831 22.5
105.8127 22.5
105.8452 22.5
105.8746 22.5
105.9059 22.5
105.9393 22.5
105.9676 22.5
105.9975 22.5
106.0277 22.5
106.0567 22.5
106.09 22.5
106.1224 22.5
106.1519 22.5
106.1853 22.5
106.2134 22.5
106.2467 22.5
106.28 22.5
106.3092 22.5
106.3388 22.5
106.3698 22.5
106.4031 22.5
106.4315 22.5
106.4628 22.5
106.4912 22.5
106.5212 22.5
106.5545 22.5
106.5879 22.5
106.6168 22.5
106.6463 22.5
106.6748 22.5
106.7082 22.5
106.7402 22.5
106.7685 22.5
106.8016 22.5
106.8306 22.5
106.8639 22.5
106.8932 22.5
106.9219 22.5
106.9499 22.5
106.9809 22.5
107.0143 22.5
107.0444 22.5
107.0724 22.5
107.1022 22.5
107.1316 22.5
107.1649 22.5
107.1926 22.5
107.2227 22.5
107.2561 22.5
107.2877 22.5
107.321 22.5
107.3544 22.5
107.3845 22.5
107.4178 22.5
107.4452 22.5
107.4785 22.5
107.5119 22.5
107.5412 22.5
107.569 22.5
107.6023 22.5
107.6357 22.5
107.6632 22.5
107.6914 22.5
107.7248 22.5
107.7546 22.5
107.7879 22.5
107.8153 22.5
107.8448 22.5
107.8781 22.5
107.9084 22.5
107.9417 22.5
107.9727 22.5
108.0044 22.5
108.0326 22.5
108.06 22.5
108.0933 22.5
108.1242 22.5
108.1533 22.5
108.1813 22.5
108.2146 22.5
108.248 22.5
108.2808 22.5
108.3097 22.5
108.3402 22.5
108.3735 22.5
108.4069 22.5
108.4351 22.5
108.4645 22.5
108.4941 22.5
108.5225 22.5
108.5554 22.5
108.5846 22.5
108.618 22.5
108.6462 22.5
108.6767 22.5
108.71 22.5
108.7431 22.5
108.7718 22.5
108.7998 22.5
108.8303 22.5
108.8636 22.5
108.897 22.5
108.9272 22.5
108.9582 22.5
108.9872 22.5
109.0205 22.5
109.0538 22.5
109.0835 22.5
109.1139 22.5
109.1457 22.5
109.179 22.5
109.2085 22.5
109.2394 22.5
109.2689 22.5
109.2966 22.5
109.3299 22.5
109.362 22.5
109.3904 22.5
109.4193 22.5
109.4513 22.5
109.4847 22.5
109.5126 22.5
109.5435 22.5
109.5734 22.5
109.6026 22.5
109.6359 22.5
109.6634 22.5
109.6941 22.5
109.7258 22.5
109.7572 22.5
109.7905 22.5
109.8189 22.5
109.8483 22.5
109.8797 22.5
109.9097 22.5
109.9431 22.5
109.9764 22.5
110.0061 22.5
110.0368 22.5
110.0667 22.5
110.1 22.5
110.13 22.5
110.1633 22.5
110.1929 22.5
110.2232 22.5
110.2565 22.5
110.2881 22.5
110.3174 22.5
110.3483 22.5
110.3787 22.5
110.412 22.5
110.442 22.5
110.4752 22.5
110.5085 22.5
110.5379 22.5
110.5712 22.5
110.6011 22.5
110.6321 22.5
110.6613 22.5
110.6915 22.5
110.7248 22.5
110.7553 22.5
110.7831 22.5
110.8148 22.5
110.8481 22.5
110.8815 22.5
110.9131 22.5
110.9465 22.5
110.9798 22.5
111.0117 22.5
111.045 22.5
111.0783 22.5
111.1096 22.5
111.1381 22.5
111.1683 22.5
111.2016 22.5
111.2315 22.5
111.2603 22.5
111.2906 22.5
111.3212 22.5
111.3545 22.5
111.387 22.5
111.418 22.5
111.4489 22.5
111.4817 22.5
111.515 22.5
111.5423 22.5
111.5725 22.5
111.6035 22.5
111.6366 22.5
111.6699 22.5
111.7016 22.5
111.7339 22.5
111.7673 22.5
111.7994 22.5
111.8328 22.5
111.8635 22.5
111.892 22.5
111.9208 22.5
111.9541 22.5
111.9874 22.5
112.0191 22.5
112.051 22.5
112.082 22.5
112.1139 22.5
112.1472 22.5
112.175 22.5
112.207 22.5
112.2403 22.5
112.2697 22.5
112.303 22.5
112.3354 22.5
112.3669 22.5
112.4002 22.5
112.4336 22.5
112.4669 22.5
112.5002 22.5
112.5303 22.5
112.5614 22.5
112.5915 22.5
112.6248 22.5
112.6534 22.5
112.6814 22.5
112.7107 22.5
112.7407 22.5
112.7741 22.5
112.8074 22.5
112.8407 22.5
112.8695 22.5
112.8981 22.5
112.9314 22.5
112.9648 22.5
112.9981 22.5
113.0304 22.5
113.0613 22.5
113.0946 22.5
113.125 22.5
113.154 22.5
113.1839 22.5
113.2151 22.5
113.2485 22.5
113.2787 22.5
113.312 22.5
113.3454 22.5
113.3757 22.5
113.409 22.5
113.4373 22.5
113.4667 22.5
113.4972 22.5
113.5256 22.5
113.5589 22.5
113.5891 22.5
113.6225 22.5
113.6522 22.5
113.6851 22.5
113.7184 22.5
113.7479 22.5
113.779 22.5
113.8124 22.5
113.8418 22.5
113.8752 22.5
113.9039 22.5
113.9314 22.5
113.962 22.5
113.9919 22.5
114.0252 22.5
114.0566 22.5
114.086 22.5
114.1164 22.5
114.1497 22.5
114.183 22.5
114.2139 22.5
114.246 22.5
114.275 22.5
114.3028 22.5
114.3361 22.5
114.3694 22.5
114.3995 22.5
114.4285 22.5
114.4591 22.5
114.4924 22.5
114.5248 22.5
114.553 22.5
114.5863 22.5
114.6196 22.5
114.653 22.5
114.6863 22.5
114.7163 22.5
114.7496 22.5
114.7829 22.5
114.8163 22.5
114.8486 22.5
114.8798 22.5
114.9089 22.5
114.9391 22.5
114.9725 22.5
115.004 22.5
115.0335 22.5
115.0655 22.5
115.0988 22.5
115.1321 22.5
115.1652 22.5
115.1957 22.5
115.2273 22.5
115.2601 22.5
115.2934 22.5
115.3219 22.5
115.3552 22.5
115.3857 22.5
115.4155 22.5
115.4488 22.5
115.4821 22.5
115.512 22.5
115.5406 22.5
115.5687 22.5
115.6021 22.5
115.6312 22.5
115.6598 22.5
115.6898 22.5
115.7201 22.5
115.7534 22.5
115.7812 22.5
115.8082 22.5
115.8369 22.5
115.8674 22.5
115.9007 22.5
115.9341 22.5
115.9674 22.5
116 22.5
116.0308 22.5
116.0641 22.5
116.0974 22.5
116.1308 22.5
116.1608 22.5
116.1889 22.5
116.2222 22.5
116.252 22.5
116.2812 22.5
116.3092 22.5
116.3384 22.5
116.3717 22.5
116.4051 22.5
116.4323 22.5
116.4656 22.5
116.4967 22.5
116.5301 22.5
116.5592 22.5
116.5886 22.5
116.6219 22.5
116.6522 22.5
116.6856 22.5
116.7157 22.5
116.7449 22.5
116.7743 22.5
116.8035 22.5
116.8368 22.5
116.8667 22.5
116.8954 22.5
116.9229 22.5
116.9531 22.5
116.9865 22.5
117.0178 22.5
117.0511 22.5
117.0825 22.5
117.1141 22.5
117.1474 22.5
117.1764 22.5
117.2072 22.5
117.2377 22.5
117.2711 22.5
117.3043 22.5
117.3347 22.5
117.3681 22.5
117.3978 22.5
117.4286 22.5
117.462 22.5
117.4915 22.5
117.5218 22.5
117.5533 22.5
117.5826 22.5
117.6159 22.5
117.646 22.5
117.6746 22.5
117.7053 22.5
117.7368 22.5
117.7701 22.5
117.8035 22.5
117.8339 22.5
117.8649 22.5
117.8979 22.5
117.9313 22.5
117.962 22.5
117.9923 22.5
118.0256 22.5
118.0535 22.5
118.0868 22.5
118.1168 22.5
118.1501 22.5
118.1808 22.5
118.2142 22.5
118.2475 22.5
118.2783 22.5
118.307 22.5
118.338 22.5
118.3704 22.5
118.4037 22.5
118.4339 22.5
118.4641 22.5
118.4951 22.5
118.5232 22.5
118.5566 22.5
118.5899 22.5
118.6212 22.5
118.6511 22.5
118.6789 22.5
118.7122 22.5
118.7437 22.5
118.7739 22.5
118.8066 22.5
118.8362 22.5
118.8695 22.5
118.9028 22.5
118.9352 22.5
118.9686 22.5
119.0004 22.5
119.0337 22.5
119.0608 22.5
119.0931 22.5
119.1235 22.5
119.1543 22.5
119.1877 22.5
119.2165 22.5
119.247 22.5
119.2803 22.5
119.309 22.5
119.3423 22.5
119.3729 22.5
119.4059 22.5
119.4352 22.5
119.4646 22.5
119.4979 22.5
119.5262 22.5
119.5544 22.5
119.5844 22.5
119.6171 22.5
119.6504 22.5
119.6784 22.5
119.7096 22.5
119.7399 22.5
119.7687 22.5
119.802 22.5
119.8346 22.5
119.8645 22.5
119.8925 22.5
119.9215 22.5
119.9548 22.5
119.9881 22.5
120.0176 22.5
120.0467 22.5
120.0793 22.5
120.1126 22.5
120.1419 22.5
120.1733 22.5
120.2067 22.5
120.24 22.5
120.2733 22.5
120.3029 22.5
120.3363 22.5
120.367 22.5
120.3954 22.5
120.4287 22.5
120.4601 22.5
120.4895 22.5
120.5208 22.5
120.5492 22.5
120.5825 22.5
120.613 22.5
120.6458 22.5
120.6732 22.5
120.7033 22.5
120.7366 22.5
120.7649 22.5
120.7963 22.5
120.8277 22.5
120.8585 22.5
120.8918 22.5
120.9207 22.5
120.9501 22.5
120.9815 22.5
121.0102 22.5
121.0435 22.5
121.0769 22.5
121.1072 22.5
121.1384 22.5
121.1673 22.5
121.2006 22.5
121.234 22.5
121.2665 22.5
121.2946 22.5
121.325 22.5
121.3584 22.5
121.3898 22.5
121.4232 22.5
121.4537 22.5
121.487 22.5
121.5203 22.5
121.5537 22.5
121.5853 22.5
121.6187 22.5
121.6471 22.5
121.6804 22.5
121.7138 22.5
121.7447 22.5
121.7781 22.5
121.8072 22.5
121.8406 22.5
121.8735 22.5
121.9014 22.5
121.93 22.5
121.9595 22.5
121.9928 22.5
122.0262 22.5
122.0546 22.5
122.0842 22.5
122.1176 22.5
122.1509 22.5
122.1825 22.5
122.2114 22.5
122.2418 22.5
122.272 22.5
122.3047 22.5
122.3381 22.5
122.3677 22.5
122.3991 22.5
122.4278 22.5
122.4612 22.5
122.4916 22.5
122.5222 22.5
122.5521 22.5
122.583 22.5
122.6163 22.5
122.6474 22.5
122.6761 22.5
122.7059 22.5
122.7389 22.5
122.7722 22.5
122.8005 22.5
122.8339 22.5
122.8672 22.5
122.8967 22.5
122.93 22.5
122.9611 22.5
122.9944 22.5
123.023 22.5
123.0514 22.5
123.0847 22.5
123.118 22.5
123.1469 22.5
123.1779 22.5
123.2113 22.5
123.2446 22.5
123.2727 22.5
123.301 22.5
123.3298 22.5
123.3607 22.5
123.3941 22.5
123.4236 22.5
123.4533 22.5
123.4866 22.5
123.5166 22.5
123.55 22.5
123.5829 22.5
123.6162 22.5
123.6485 22.5
123.6774 22.5
123.7108 22.5
123.7441 22.5
123.7765 22.5
123.8076 22.5
123.8409 22.5
123.8743 22.5
123.9021 22.5
123.9354 22.5
123.9687 22.5
124.0021 22.5
124.0354 22.5
124.0652 22.5
124.0986 22.5
124.1319 22.5
124.1609 22.5
124.1942 22.5
124.2275 22.5
124.2574 22.5
124.2872 22.5
124.3205 22.5
124.3538 22.5
124.3839 22.5
124.4129 22.5
124.4432 22.5
124.4749 22.5
124.5082 22.5
124.5416 22.5
124.5725 22.5
124.6059 22.5
124.6392 22.5
124.6725 22.5
124.7038 22.5
124.7341 22.5
124.7664 22.5
124.7963 22.5
124.8296 22.5
124.8599 22.5
124.891 22.5
124.9231 22.5
124.9565 22.5
124.9898 22.5
125.0231 22.5
125.053 22.5
125.0816 22.5
125.1135 22.5
125.1469 22.5
125.1802 22.5
125.2121 22.5
125.2454 22.5
125.2788 22.5
125.3121 22.5
125.3446 22.5
125.375 22.5
125.4061 22.5
125.4358 22.5
125.4691 22.5
125.5024 22.5
125.5358 22.5
125.5691 22.5
125.5984 22.5
125.6317 22.5
125.6617 22.5
125.6913 22.5
125.7211 22.5
125.7539 22.5
125.7872 22.5
125.8205 22.5
125.8489 22.5
125.8793 22.5
125.9093 22.5
125.9426 22.5
125.971 22.5
126.0011 22.5
126.0342 22.5
126.0633 22.5
126.0967 22.5
126.13 22.5
126.161 22.5
126.1907 22.5
126.224 22.5
126.2573 22.5
126.2887 22.5
126.3221 22.5
126.3516 22.5
126.3821 22.5
126.4154 22.5
126.447 22.5
126.4753 22.5
126.5087 22.5
126.539 22.5
126.5723 22.5
126.601 22.5
126.632 22.5
126.6629 22.5
126.6963 22.5
126.7296 22.5
126.763 22.5
126.7963 21.6
126.8296 21.6
126.8585 20.5
126.8918 19.65
126.9214 19.65
126.9527 19.65
126.9851 19.65
127.0148 19
127.0481 18.3
127.0779 18.3
127.106 17.45
127.1358 17.45
127.1659 17
127.1993 16.8
127.2312 16.8
127.2616 17
127.2923 17.45
127.3252 17.45
127.3586 17.65
127.3902 17.65
127.4235 17.65
127.4564 17.65
127.4861 17.45
127.5194 17.45
127.5527 17.45
127.5839 17.45
127.6129 17.45
127.6463 17.45
127.6796 17.45
127.7129 17.45
127.7413 17.25
127.7736 17
127.8069 17
127.8402 17
127.8715 17
127.9022 17
127.9335 16.8
127.9624 16.35
127.9957 16.35
128.0277 15.9
128.0578 15.9
128.0867 15.05
128.1152 14.15
128.1485 14.15
128.1801 13.95
128.2105 13.75
128.2438 13.75
128.2754 13.75
128.3087 13.75
128.3389 13.75
128.3668 13.75
128.3978 13.75
128.4284 13.75
128.4618 13.75
128.491 13.75
128.5243 13.75
128.5556 13.95
128.585 13.95
128.6183 13.95
128.6482 14.15
128.6788 14.15
128.7107 14.4
128.744 14.4
128.7773 14.4
128.8106 14.6
128.8408 14.85
128.8708 14.85
128.9025 15.05
128.9359 15.05
128.9654 15.05
128.9953 15.05
129.0286 15.05
129.0586 15.05
129.0919 15.05
129.1228 15.05
129.1562 15.05
129.1861 15.05
129.2154 15.05
129.2487 15.05
129.282 15.05
129.3146 15.05
129.3462 15.05
129.3755 15.05
129.4088 15.05
129.4405 15.05
129.4695 15.05
129.5029 15.05
129.5362 15.05
129.5695 15.05
129.5985 15.05
129.6287 15.05
129.6611 15.05
129.6919 15.05
129.7253 15.05
129.7545 15.05
129.7843 15.05
129.8147 15.05
129.8481 15.05
129.8814 15.05
129.9136 15.05
129.947 15.05
129.9803 15.05
130.0092 15.05
130.0425 15.05
130.0724 15.05
130.1047 15.05
130.133 15.05
130.1633 15.05
130.1967 15.05
130.2276 15.05
130.2563 15.05
130.2889 15.25
130.3222 15.25
130.3555 15.5
130.3878 15.5
130.418 15.5
130.4475 15.5
130.4765 15.5
130.5098 15.5
130.5431 15.5
130.5765 15.5
130.6057 15.5
130.634 15.5
130.6673 15.7
130.7006 15.7
130.73 15.7
130.7599 15.7
130.7905 15.9
130.8239 15.9
130.8572 16.15
130.887 16.15
130.9184 16.15
130.9506 16.15
130.9839 16.15
131.0144 16.15
131.0445 16.15
131.0744 16.15
131.1077 16.15
131.141 16.15
131.1708 16.15
131.2041 16.15
131.2329 16.15
131.2629 16.15
131.2963 16.15
131.3292 16.15
131.3587 16.15
131.3921 16.15
131.4229 16.15
131.4562 16.15
131.4889 16.15
131.5193 16.15
131.552 16.15
131.5839 16.15
131.6173 16.15
131.6488 16.15
131.6821 16.15
131.7155 16.15
131.7481 16.15
131.7814 16.15
131.8148 16.15
131.8481 16.15
131.8814 16.15
131.9109 16.15
131.9443 16.15
131.9776 16.15
132.0109 16.15
132.0402 16.15
132.0715 16.15
132.1049 16.15
132.1378 16.15
132.1664 16.15
132.1967 16.15
132.23 16.15
132.2634 16.15
132.2915 16.15
132.3216 16.15
132.3549 16.15
132.3848 16.15
132.4181 16.15
132.4514 16.15
132.4822 16.15
132.5123 16.15
132.5434 16.15
132.5767 16.15
132.61 16.15
132.6388 16.15
132.6722 16.15
132.7055 16.15
132.7388 16.15
132.7699 16.15
132.799 16.15
132.8313 16.15
132.8619 16.15
132.8952 16.15
132.9285 16.15
132.9619 16.15
132.9919 16.15
133.021 16.15
133.0543 16.15
133.087 16.15
133.1181 16.15
133.15 16.15
133.1834 16.15
133.2167 16.15
133.2471 16.15
133.2784 16.15
133.3071 16.15
133.338 16.15
133.3714 16.15
133.3999 16.15
133.428 16.15
133.459 16.15
133.4911 16.15
133.5245 16.35
133.5578 16.35
133.5909 16.35
133.6233 16.35
133.654 16.35
133.6873 16.35
133.7167 16.35
133.7497 16.35
133.7831 16.35
133.8113 16.35
133.8446 16.35
133.8742 16.35
133.903 16.35
133.933 16.35
133.9664 16.35
133.9997 16.35
134.0295 16.35
134.0629 16.35
134.0962 16.35
134.1294 16.35
134.1627 16.35
134.1938 16.35
134.2272 16.35
134.2572 16.35
134.287 16.35
134.3204 16.35
134.3512 16.35
134.3846 16.35
134.4143 16.35
134.4476 16.35
134.481 16.35
134.5143 16.35
134.5459 16.35
134.5761 16.35
134.6095 16.6
134.6428 16.6
134.6738 16.6
134.7045 16.8
134.7342 16.8
134.7651 16.8
134.7984 16.8
134.8268 16.8
134.8576 16.8
134.888 16.8
134.9183 16.8
134.9516 16.8
134.9814 16.8
135.0113 16.8
135.0407 16.8
135.074 16.8
135.1073 16.8
135.1395 16.8
135.1712 16.8
135.2041 16.8
135.2356 16.8
135.269 16.8
135.2978 16.8
135.3274 16.8
135.3574 16.8
135.3878 16.8
135.4211 16.8
135.4545 16.8
135.4868 16.8
135.5185 16.8
135.5482 16.8
135.5816 16.6
135.6115 16.6
135.6431 16.6
135.6735 16.6
135.7019 16.6
135.7352 16.6
135.7681 16.6
135.8014 16.6
135.8347 16.6
135.8654 16.6
135.8988 16.6
135.9276 16.6
135.9572 16.6
135.9906 16.6
136.0224 16.6
136.0557 16.6
136.086 16.6
136.1193 16.6
136.1503 16.6
136.18 16.6
136.2133 16.6
136.2466 16.6
136.2783 16.6
136.3103 16.6
136.3397 16.6
136.3731 16.6
136.4064 16.6
136.438 16.6
136.4669 16.6
136.5003 16.6
136.5336 16.6
136.567 16.6
136.595 16.6
136.6262 16.6
136.6584 16.6
136.6918 16.6
136.7213 16.6
136.7546 16.6
136.7861 16.6
136.8194 16.6
136.8527 16.6
136.883 16.6
136.9131 16.6
136.9446 16.6
136.9724 16.6
137.0057 16.6
137.0391 16.6
137.0688 16.6
137.0973 16.6
137.1296 16.6
137.1629 16.6
137.1918 16.6
137.2237 16.6
137.257 16.6
137.2903 16.6
137.3237 16.6
137.3551 16.6
137.3866 16.6
137.4199 16.6
137.4509 16.6
137.4842 16.6
137.5137 16.6
137.5443 16.6
137.5731 16.6
137.603 16.6
137.6363 16.6
137.6674 16.6
137.6984 16.6
137.7292 16.6
137.7599 16.6
137.7932 16.35
137.8264 16.35
137.8572 16.35
137.8901 16.35
137.9234 16.35
137.9568 16.35
137.9901 16.35
138.0229 16.35
138.0531 16.35
138.0844 16.35
138.1177 16.35
138.151 16.15
138.1809 16.15
138.2142 16.15
138.2473 15.9
138.2807 15.9
138.3104 15.9
138.3437 15.9
138.3743 15.9
138.404 15.9
138.4374 15.9
138.4707 15.9
138.5006 15.9
138.5312 15.9
138.5645 15.9
138.5979 15.9
138.626 15.9
138.6594 15.9
138.6927 15.9
138.7212 15.9
138.7545 15.9
138.7868 15.9
138.8171 15.9
138.8474 15.9
138.8789 15.9
138.9122 15.9
138.9438 15.9
138.9744 15.9
139.0053 15.9
139.0355 15.9
139.0688 15.9
139.0984 15.7
139.128 15.7
139.1605 15.7
139.1938 15.7
139.2271 15.7
139.256 15.7
139.2875 15.7
139.3179 15.7
139.3513 15.7
139.3846 15.7
139.4179 15.7
139.4513 15.5
139.4809 15.05
139.51 15.05
139.5434 15.05
139.5767 14.85
139.61 14.85
139.6379 14.85
139.6693 14.6
139.7026 14.6
139.7353 14.15
139.7637 13.75
139.797 13.75
139.8287 13.3
139.8621 13.3
139.8907 13.3
139.9202 13.3
139.9497 13.3
139.9796 13.3
140.013 13.3
140.0463 13.3
140.0759 13.3
140.1056 13.3
140.1388 13.3
140.1722 13.3
140.203 13.5
140.2364 13.5
140.2687 13.75
140.302 13.95
140.3353 13.95
140.3645 14.15
140.394 14.15
140.4274 14.15
140.4583 14.15
140.4917 14.15
140.5203 14.15
140.5528 14.4
140.5828 14.4
140.612 14.4
140.6453 14.6
140.6768 14.6
140.7102 14.85
140.7405 14.85
140.7738 14.85
140.8072 14.85
140.8405 14.6
140.8738 14.6
140.9022 14.6
140.9328 14.6
140.9662 14.15
140.9962 14.15
141.0246 13.75
141.0542 13.75
141.084 13.3
141.1173 12.85
141.1456 12.85
141.176 12.65
141.2057 12.65
141.239 12.65
141.2723 12.65
141.304 12.65
141.3347 12.65
141.3651 12.65
141.3985 12.65
141.4318 12.65
141.4651 12.45
141.4983 12.45
141.5271 12.45
141.5583 12.2
141.5916 12.2
141.6203 12.2
141.6498 12
141.6807 12
141.7109 11.75
141.7442 11.55
141.7726 11.55
141.806 11.1
141.8393 10.7
141.8685 10.7
141.9018 10.25
141.9326 10
141.9659 10
141.9988 9.6
142.0321 9.35
142.0654 9.35
142.0988 8.7
142.1321 8.05
142.1617 8.05
142.195 7.4
142.2283 6.55
142.2597 6.55
142.2881 5.85
142.3215 5.45
142.3524 5.45
142.3857 5
142.4146 5
142.4444 5
142.4778 5
142.5075 5
142.5408 5
142.5742 5
142.6053 5
142.6341 5
142.6642 5
142.6976 5
142.7289 4.8
142.7579 4.8
142.7896 4.8
142.8206 4.55
142.8539 4.35
142.8873 4.35
142.9201 4.35
142.9499 4.35
142.9818 4.35
143.0151 4.35
143.0439 4.35
143.0732 4.35
143.1047 4.35
143.1369 4.35
143.1703 4.35
143.2009 4.35
143.2308 4.35
143.2641 4.35
143.2948 4.15
143.3282 4.15
143.3587 4.15
143.39 3.9
143.4181 3.9
143.4506 3.7
143.4839 3.7
143.5122 3.7
143.5415 3.45
143.5713 3.45
143.6047 3.45
143.638 3.45
143.6672 3.45
143.6984 3.45
143.7318 3.45
143.7651 3.45
143.7984 3.45
143.83 3.45
143.8602 3.45
143.8886 3.45
143.9168 3.45
143.9502 3.45
143.9827 3.45
144.0133 3.45
144.0413 3.45
144.0712 3.45
144.1045 3.45
144.1378 3.45
144.1712 3.45
144.2016 3.45
144.2341 3.45
144.2674 3.45
144.2959 3.45
144.328 3.45
144.3613 3.45
144.3945 3.45
144.4278 3.45
144.4602 3.45
144.4936 3.45
144.5218 3.45
144.5552 3.25
144.5885 2.6
144.6179 2.6
144.6465 2.15
144.6759 1.7
144.708 1.7
144.7413 1.5
144.773 1.3
144.804 1.3
144.8353 1.3
144.8687 1.3
144.902 1.3
144.931 1.05
144.9634 1.05
144.9942 0.85
145.0253 0.65
145.0587 0.65
145.0891 0.4
145.1224 0.4
145.1515 0.4
145.1812 0.4
145.2146 0.2
145.2447 0.2
145.2781 -0.2
145.3105 -0.4
145.3419 -0.4
145.3752 -0.65
145.4064 -0.65
145.435 -0.65
145.4646 -0.65
145.4979 -0.65
145.5313 -0.65
145.5604 -0.4
145.5932 0
145.6265 0
145.6556 0.65
145.6889 0.65
145.7223 1.05
145.7525 1.5
145.7842 1.5
145.8132 1.7
145.8466 1.7
145.8779 1.7
145.9112 1.7
145.941 1.7
145.9715 1.7
146.0049 1.5
146.0364 1.5
146.0655 1.5
146.0976 1.5
146.128 1.5
146.1613 1.5
146.1895 1.5
146.2229 1.5
146.2522 1.5
146.2812 1.7
146.3146 1.7
146.3461 1.95
146.3758 2.4
146.4071 2.4
146.4378 2.8
146.4711 3.05
146.5045 3.05
146.5361 3.25
146.5643 3.25
146.5945 3.25
146.6278 3.25
146.6568 3.25
146.687 3.45
146.7203 3.7
146.7515 3.7
146.7848 3.7
146.8145 3.9
146.8466 3.9
146.8799 3.9
146.91 3.9
146.9433 3.9
146.9753 3.9
147.0086 3.9
147.0419 3.9
147.0708 3.9
147.1041 4.15
147.1375 4.15
147.1708 4.55
147.1994 5.45
147.2294 5.45
147.2628 6.75
147.2961 8.05
147.3245 8.05
147.3549 9.15
147.3846 10.45
147.4179 10.45
147.4512 11.35
147.4832 12
147.5165 12
147.5499 12.45
147.5832 12.45
147.6165 12.45
147.6469 12.45
147.6766 12.2
147.7047 12.2
147.7381 11.75
147.7694 11.75
147.7995 11.75
147.8328 11.75
147.866 11.75
147.8993 12
147.9313 12.2
147.963 12.2
147.9932 13.5
148.0266 15.05
148.0599 16.8
148.0882 16.8
148.1194 18.1
148.1491 18.1
148.1789 19.85
148.2123 21.8
148.2431 21.8
148.2764 23.15
148.3073 23.15
148.3371 25.3
148.3704 27.05
148.4037 29.05
148.4341 29.05
148.4667 31
148.4974 32.3
148.5307 32.3
148.5616 33.85
148.5912 35.15
148.6213 35.15
148.6545 36
148.6879 38
148.7178 38
148.7502 39.3
148.7833 40.6
148.8124 40.6
148.8457 41.7
148.8791 41.7
148.9097 42.8
148.9391 43.9
148.9698 43.9
149.0031 45
149.0341 46.95
149.0654 46.95
149.0979 48.25
149.1287 49.15
149.162 49.15
149.1934 50.2
149.2267 51.95
149.26 51.95
149.2934 53.3
149.3267 54.15
149.3539 54.15
149.387 54.6
149.4171 54.6
149.4483 54.6
149.4816 55
149.5116 55.25
149.5449 55.25
149.5767 55.9
149.6086 55.9
149.6419 56.35
149.674 56.75
149.7074 57.45
149.7356 57.45
149.7653 58.1
149.7986 58.1
149.8282 59.4
149.8568 60.25
149.8902 60.25
149.9201 61.35
149.9534 61.8
149.9841 61.8
150.016 62.45
150.0486 62.65
150.0797 62.65
150.113 62.65
150.1426 62.65
150.1745 62.65
150.2078 62.65
150.2364 62.65
150.2698 62.65
150.3031 62.65
150.3364 62.65
150.3656 62.65
150.3982 62.65
150.4315 62.45
150.4648 62.45
150.4967 61.6
150.5284 60.7
150.5614 60.7
150.5947 59.4
150.6245 57.45
150.656 57.45
150.6893 55.45
150.7198 52.85
150.7531 52.85
150.7828 50.2
150.8159 46.5
150.849 46.5
150.8772 42.35
150.9105 42.35
150.9439 38.2
150.9772 35.35
151.0075 32.5
151.0409 32.5
151.0742 29.9
151.1038 27.3
151.1331 27.3
151.1664 25.1
151.1995 22.7
151.2329 22.7
151.2626 20.95
151.2959 19.4
151.3292 19.4
151.3583 17.65
151.3916 16.35
151.4249 16.35
151.4544 15.25
151.4841 15.25
151.5123 13.5
151.5457 11.75
151.579 9.8
151.6123 9.8
151.6436 7.85
151.6754 6.3
151.7088 6.3
151.7381 4.8
151.7662 4.8
151.7962 3.7
151.829 3.25
151.8624 3.25
151.8903 2.6
151.9236 2.4
151.9552 2.4
151.9885 1.95
152.0219 1.3
152.052 1.3
152.0852 0.4
152.1185 -0.4
152.1498 -0.4
152.1831 -1.5
152.2135 -2.6
152.2451 -2.6
152.2757 -3.7
152.307 -4.8
152.3403 -4.8
152.37 -5.85
152.3979 -6.75
152.4273 -6.75
152.4606 -7.4
152.494 -7.85
152.5225 -7.85
152.5549 -8.05
152.5859 -8.05
152.6154 -8.3
152.6487 -8.3
152.6818 -8.3
152.7115 -8.05
152.7403 -7.6
152.7702 -7.6
152.8035 -6.55
152.8368 -6.1
152.8658 -6.1
152.8992 -5.65
152.9308 -5.2
152.9641 -5.2
152.9963 -5
153.0243 -5
153.0556 -4.15
153.0861 -3.25
153.1194 -3.25
153.1486 -2.4
153.1817 -1.3
153.215 -1.3
153.2473 -0.4
153.2806 0.4
153.3123 0.4
153.3417 1.05
153.3709 1.7
153.402 1.7
153.4353 2.15
153.4686 2.15
153.4988 2.15
153.5274 2.15
153.5589 2.15
153.5922 2.15
153.6255 2.4
153.6548 2.6
153.6882 2.6
153.7215 3.25
153.7548 4.15
153.7852 5
153.8151 5
153.8484 5.85
153.8773 5.85
153.9107 6.95
153.9402 8.3
153.9698 8.3
153.9988 9.6
154.0321 10.45
154.0654 10.45
154.0971 11.35
154.1303 12.45
154.1624 12.45
154.1937 13.1
154.227 13.75
154.2582 13.75
154.2916 14.15
154.3249 14.85
154.3569 14.85
154.3903 15.05
154.4206 15.5
154.4539 15.5
154.4842 15.5
154.5134 15.5
154.5467 15.5
154.5764 15.5
154.6097 15.5
154.6416 15.5
154.6709 15.5
154.7042 14.85
154.7356 14.85
154.7684 13.95
154.7983 13.95
154.8283 12
154.8616 10.25
154.8949 7.6
154.9283 7.6
154.9616 5
154.9916 5
155.0249 1.95
155.0573 -0.65
155.0871 -3.45
155.1174 -3.45
155.1489 -6.1
155.1822 -8.05
155.2155 -8.05
155.2489 -10.45
155.2822 -12.2
155.3155 -13.95
155.3489 -16.15
155.3822 -16.15
155.412 -18.55
155.4451 -20.5
155.4784 -20.5
155.51 -23.15
155.5401 -25.75
155.572 -25.75
155.6039 -27.95
155.6372 -30.8
155.6673 -30.8
155.6996 -33.6
155.733 -35.8
155.7655 -35.8
155.7989 -38.4
155.8322 -40.6
155.8627 -40.6
155.8959 -43.25
155.9266 -46.05
155.9599 -46.05
155.993 -49.15
156.0236 -51.75
156.0537 -51.75
156.0822 -54.8
156.1155 -57.45
156.1488 -57.45
156.1793 -60.7
156.2092 -63.75
156.2425 -63.75
156.2758 -66.4
156.3048 -69.2
156.3341 -69.2
156.3636 -71.85
156.3945 -71.85
156.4278 -73.6
156.4574 -75.1
156.4883 -75.1
156.5188 -76
156.5479 -76.65
156.5812 -76.65
156.6113 -77.3
156.6413 -77.95
156.6699 -77.95
156.7014 -78.2
156.7347 -78.2
156.7681 -78.2
156.7972 -78.2
156.8259 -78.2
156.8592 -78.2
156.8925 -78.2
156.9241 -78.2
156.9536 -78.2
156.9869 -77.95
157.0202 -76
157.0493 -73.35
157.0773 -73.35
157.1083 -70.95
157.1388 -70.95
157.1721 -68.15
157.2005 -65.5
157.2334 -65.5
157.2664 -63.3
157.2998 -61.15
157.3331 -59.15
157.3641 -59.15
157.3969 -58.1
157.4302 -57.65
157.4603 -57.65
157.4936 -57.65
157.5269 -57.65
157.5603 -57.65
157.5884 -57.65
157.6194 -57.65
157.6527 -57.65
157.6817 -56.75
157.7139 -55.25
157.743 -55.25
157.7748 -52.2
157.8082 -47.8
157.8374 -47.8
157.8681 -43.65
157.8985 -43.65
157.9318 -38.65
157.9652 -34.7
157.9985 -29.45
158.0284 -29.45
158.0596 -24.65
158.0895 -24.65
158.1228 -20.95
158.1544 -16.15
158.1828 -16.15
158.2106 -13.3
158.2413 -13.3
158.2746 -10
158.3067 -6.75
158.3356 -6.75
158.3689 -3.9
158.3978 -1.05
158.4312 3.25
158.4638 3.25
158.4972 5.85
158.5286 8.7
158.5601 8.7
158.5934 10.7
158.625 12.45
158.6575 12.45
158.6895 14.15
158.7191 14.15
158.7525 15.25
158.7838 16.6
158.8142 16.6
158.8438 17.9
158.8767 19.4
158.9101 20.5
158.9434 20.5
158.9767 21.8
159.0101 22.25
159.0413 22.25
159.0746 22.7
159.104 23.35
159.1374 23.35
159.1707 23.8
159.2009 24.2
159.2343 24.2
159.2676 24.65
159.2973 24.65
159.3282 24.65
159.3572 24.65
159.3905 24.65
159.4239 24.65
159.4566 24.65
159.4864 24.65
159.5198 24.65
159.5531 24.2
159.5826 24
159.6134 23.8
159.6434 23.8
159.6767 23.8
159.71 23.8
159.7408 23.8
159.7731 23.55
159.8065 23.55
159.8383 23.35
159.8716 22.9
159.9012 22.9
159.9303 22.7
159.9595 22.5
159.9928 22.5
160.0262 22.25
160.0595 21.8
160.0884 21.8
160.1169 20.95
160.1496 19.85
160.183 19.85
160.214 17.9
160.2473 15.5
160.2806 15.5
160.314 13.5
160.3473 11.75
160.3765 11.75
160.4081 10
160.4394 8.3
160.4713 8.3
160.5046 6.75
160.5379 4.35
160.5703 4.35
160.5999 1.5
160.6281 1.5
160.6614 -2.4
160.6911 -6.55
160.7195 -6.55
160.7472 -9.15
160.7788 -9.15
160.8121 -13.75
160.8412 -17.25
160.8735 -20.05
160.9029 -20.05
160.9342 -22.9
160.9675 -27.05
161.0004 -27.05
161.0336 -29.25
161.0663 -29.25
161.0996 -32.95
161.1329 -36
161.1663 -39.3
161.1966 -39.3
161.2254 -42.55
161.2565 -42.55
161.2898 -44.55
161.3202 -47.8
161.3535 -47.8
161.3824 -51.1
161.4158 -54.35
161.4491 -57.45
161.4797 -57.45
161.5106 -59.6
161.5405 -59.6
161.5738 -63.1
161.6072 -65.5
161.6362 -68.35
161.6671 -68.35
161.698 -70.55
161.7279 -70.55
161.7612 -72.7
161.7935 -75.55
161.8269 -75.55
161.8559 -77.3
161.8848 -79.5
161.9182 -79.5
161.9497 -80.8
161.9805 -80.8
162.0096 -82.35
162.0429 -83.65
162.0763 -84.75
162.1091 -84.75
162.1424 -85.8
162.1749 -86.25
162.2072 -86.25
162.2406 -86.7
162.2739 -86.7
162.3072 -86.7
162.3398 -86.7
162.3704 -86.5
162.4038 -86.5
162.4345 -85.6
162.4651 -83.85
162.4952 -83.85
162.5258 -82.1
162.5592 -80.35
162.5884 -80.35
162.6204 -79.25
162.6486 -79.25
162.682 -79.05
162.7153 -79.05
162.7439 -79.05
162.7727 -79.05
162.8046 -79.05
162.838 -79.05
162.8713 -79.05
162.9009 -79.05
162.9337 -79.05
162.9664 -79.05
162.9997 -79.25
163.0331 -79.5
163.0664 -79.5
163.0997 -80.15
163.1292 -81
163.1614 -81
163.1947 -81
163.2246 -81
163.2531 -81
163.2865 -81
163.3194 -80.8
163.3527 -80.8
163.384 -80.35
163.4132 -79.05
163.4441 -79.05
163.4766 -77.3
163.5099 -75.1
163.5388 -75.1
163.5722 -72.7
163.6044 -72.7
163.634 -70.55
163.6674 -67.5
163.6991 -67.5
163.7315 -63.55
163.7606 -60.5
163.7898 -60.5
163.8232 -56.55
163.8535 -53.3
163.8832 -53.3
163.9143 -49.35
163.9477 -45.2
163.981 -45.2
164.0112 -41.25
164.0392 -41.25
164.0725 -38.2
164.1059 -34.95
164.1392 -32.75
164.1671 -32.75
164.1983 -31
164.2316 -29.7
164.2617 -29.7
164.295 -27.95
164.3249 -27.95
164.3549 -26.4
164.3882 -24.45
164.4157 -24.45
164.449 -22.9
164.4823 -21.6
164.5123 -21.6
164.5451 -19.85
164.578 -18.1
164.6113 -18.1
164.644 -16.35
164.6751 -13.95
164.7052 -13.95
164.7379 -11.55
164.7713 -9.6
164.7997 -9.6
164.8295 -7.4
164.8605 -4.55
164.8902 -4.55
164.9236 -2.15
164.9569 -0.4
164.9902 -0.4
165.0179 1.5
165.0473 1.5
165.0807 3.25
165.114 4.15
165.1454 4.8
165.1747 4.8
165.208 4.8
165.2414 4.55
165.2701 4.55
165.2977 4.15
165.3277 4.15
165.3591 3.9
165.3925 3.25
165.4226 3.25
165.4539 2.6
165.4872 1.95
165.5195 1.95
165.5528 1.3
165.5839 0.85
165.614 0.85
165.6473 0.4
165.6755 -0.2
165.7088 -0.2
165.7381 -0.4
165.7666 -0.4
165.7956 -0.4
165.8288 -0.4
165.8622 -0.2
165.8939 -0.2
165.9273 0
165.9587 0.65
165.9921 0.65
166.0254 1.3
166.0587 1.95
166.0881 1.95
166.1214 2.15
166.1508 1.95
166.1842 1.95
166.2152 1.05
166.2486 -0.65
166.2778 -0.65
166.3062 -3.05
166.3396 -5.2
166.3694 -5.2
166.3981 -7.85
166.4258 -7.85
166.4592 -10.25
166.4925 -11.75
166.5258 -13.3
166.5544 -13.3
166.5857 -14.4
166.6173 -14.4
166.6507 -15.5
166.6806 -16.15
166.7109 -16.15
166.7406 -17.25
166.7699 -18.55
166.8032 -19.4
166.8334 -19.4
166.864 -20.3
166.8958 -20.3
166.9248 -21.15
166.9582 -21.6
166.9915 -21.6
167.0248 -22.05
167.0551 -22.05
167.0884 -22.05
167.1217 -22.05
167.1551 -22.05
167.1852 -22.05
167.2148 -22.05
167.2449 -22.05
167.2782 -22.05
167.308 -22.05
167.3414 -22.05
167.3702 -22.05
167.3999 -22.05
167.4332 -22.05
167.4639 -22.05
167.494 -22.05
167.5273 -22.05
167.5607 -22.05
167.594 -22.05
167.6243 -21.8
167.6549 -21.8
167.6882 -20.95
167.7193 -19.85
167.7526 -19.85
167.7835 -18.1
167.8121 -16.35
167.8455 -16.35
167.8764 -15.05
167.9097 -14.4
167.9373 -14.4
167.9694 -13.75
168.0015 -13.75
168.03 -13.5
168.0634 -13.3
168.0934 -13.3
168.1236 -13.3
168.1534 -13.3
168.1848 -13.1
168.2182 -12.65
168.2491 -12.65
168.2822 -12.2
168.3114 -11.35
168.3417 -11.35
168.3751 -10.45
168.4041 -9.15
168.4329 -9.15
168.4662 -6.55
168.4976 -4.35
168.5309 -4.35
168.5643 -1.7
168.5954 1.05
168.6271 1.05
168.657 3.05
168.6904 5
168.7202 5
168.7535 6.75
168.7869 8.05
168.8154 8.05
168.8487 9.8
168.878 11.35
168.9073 11.35
168.9406 12.65
168.974 12.65
169.0073 14.15
169.0355 15.5
169.0689 15.5
169.0982 17.25
169.1282 19
169.1615 19
169.1912 20.3
169.2215 21.6
169.2548 21.6
169.2846 23.15
169.3179 24.65
169.3512 24.65
169.3846 25.75
169.4137 26.65
169.4417 26.65
169.4751 27.95
169.5048 28.6
169.538 28.6
169.5676 29.25
169.5992 29.25
169.6325 30.1
169.6615 31
169.6927 31
169.726 31.85
169.7593 32.95
169.7926 33.85
169.8239 33.85
169.8551 34.5
169.8857 34.5
169.917 35.15
169.9504 35.8
169.9804 35.8
170.0133 36
170.0424 36.45
170.0726 36.45
170.1059 36.9
170.1392 37.35
170.171 37.35
170.2043 38
170.2361 38.65
170.2694 38.65
170.2989 39.3
170.3323 39.95
170.362 39.95
170.3926 40.4
170.4259 41.25
170.4548 41.25
170.4859 41.9
170.5157 41.9
170.5446 42.55
170.578 43.45
170.6109 43.45
170.6428 44.3
170.6726 45.4
170.7035 45.4
170.7369 46.7
170.7699 47.8
170.8032 48.9
170.835 48.9
170.8683 49.8
170.9017 50.65
170.9307 50.65
170.9589 51.1
170.9882 51.1
171.0175 51.55
171.0508 51.55
171.079 51.55
171.1091 51.55
171.1424 51.55
171.1719 51.55
171.2052 51.55
171.2356 51.55
171.2667 51.55
171.2995 51.55
171.332 51.55
171.3653 51.55
171.3965 51.3
171.4252 51.3
171.456 51.3
171.4867 51.3
171.52 51.55
171.55 51.55
171.5833 51.75
171.6166 51.75
171.6475 51.75
171.6808 51.75
171.7133 51.75
171.7445 51.75
171.7772 51.75
171.8065 51.75
171.8399 51.55
171.8732 50.65
171.9027 50.65
171.936 49.55
171.9666 48.25
171.9999 48.25
172.0332 46.7
172.0653 45.4
172.0932 45.4
172.1265 44.1
172.1599 42.8
172.1932 42.15
172.2216 42.15
172.2535 41.9
172.2868 41.9
172.3201 42.15
172.3535 42.55
172.3868 43.25
172.4201 43.25
172.4502 43.9
172.4835 44.3
172.5135 44.3
172.5436 44.75
172.5726 44.75
172.6007 44.75
172.6341 44.75
172.6639 44.75
172.6935 44.55
172.7268 44.3
172.7601 44.3
172.7935 43.65
172.8234 42.8
172.852 42.8
172.8824 42.15
172.913 42.15
172.9463 41.05
172.9745 40.15
173.004 40.15
173.0362 39.5
173.066 39.5
173.0993 39.5
173.1306 39.5
173.1626 39.5
173.1952 39.5
173.2285 39.5
173.2619 39.5
173.2948 39.5
173.3265 39.3
173.3583 39.1
173.39 39.1
173.4233 38.2
173.4527 37.35
173.4811 37.35
173.5144 36.45
173.5457 35.6
173.579 35.6
173.6078 34.95
173.6411 34.7
173.6745 34.7
173.7055 34.5
173.7388 34.5
173.7683 34.5
173.8008 34.25
173.8341 33.85
173.8642 33.85
173.8976 32.95
173.9294 32.1
173.9624 32.1
173.9925 31.2
174.0258 30.1
174.0591 30.1
174.0879 29.05
174.1197 29.05
174.1508 28.15
174.1842 27.05
174.2175 26.2
174.2508 26.2
174.2822 25.3
174.3156 24.2
174.3444 24.2
174.3778 23.35
174.4101 22.25
174.4431 22.25
174.4739 21.15
174.5067 20.05
174.54 20.05
174.5711 19.65
174.6044 19.2
174.6329 19.2
174.6663 19
174.6996 19
174.7291 19
174.7582 19
174.7915 19
174.8222 19
174.8556 19
174.8889 19
174.9222 19
174.9518 19
174.9851 18.75
175.0185 18.1
175.05 18.1
175.0796 17.65
175.1129 17.65
175.1417 17.25
175.175 16.8
175.2058 16.8
175.2372 16.6
175.2683 16.35
175.2991 16.35
175.3324 16.15
175.3622 16.15
175.3909 16.15
175.4243 16.15
175.4559 16.15
175.4892 16.15
175.5194 16.15
175.5495 16.15
175.5797 16.15
175.6096 16.15
175.643 16.15
175.6724 16.15
175.7033 16.15
175.7328 16.15
175.7641 15.7
175.7975 15.25
175.8283 15.25
175.8601 14.6
175.8904 13.3
175.9232 13.3
175.9566 12
175.9892 10.7
176.0184 10.7
176.0493 9.6
176.0796 9.6
176.113 8.5
176.1417 7.4
176.1712 7.4
176.2045 6.55
176.2368 4.8
176.2701 4.8
176.3034 3.05
176.3348 1.3
176.3681 -0.65
176.4015 -0.65
176.4348 -1.95
176.4649 -2.8
176.4939 -2.8
176.5215 -3.05
176.5527 -3.05
176.586 -3.05
176.619 -2.6
176.6489 -2.15
176.6787 -2.15
176.7105 -2.15
176.7438 -2.15
176.7758 -2.15
176.8092 -2.4
176.8425 -3.05
176.872 -3.05
176.9053 -4.15
176.9386 -5.65
176.9704 -7.4
177.0001 -7.4
177.0334 -9.35
177.0667 -10.45
177.0965 -10.45
177.1292 -10.45
177.1603 -10.45
177.1936 -10.45
177.2269 -10.45
177.2573 -10.45
177.2868 -10.45
177.3202 -10.45
177.351 -10.45
177.3843 -10.7
177.4137 -11.1
177.4471 -11.1
177.4797 -12.2
177.513 -12.85
177.5463 -12.85
177.5775 -13.5
177.6082 -13.5
177.6368 -13.5
177.6663 -13.5
177.6996 -13.5
177.731 -13.5
177.7643 -13.5
177.7932 -13.5
177.8266 -13.5
177.8599 -13.5
177.8894 -13.5
177.9174 -13.5
177.9507 -13.5
177.984 -13.5
178.0173 -13.5
178.0474 -13.5
178.0782 -13.5
178.1105 -13.5
178.1419 -13.5
178.1752 -13.5
178.2056 -13.5
178.2351 -13.5
178.2666 -13.5
178.2962 -13.5
178.3295 -13.5
178.3609 -13.5
178.3938 -13.5
178.4258 -13.5
178.4559 -13.5
178.4892 -13.5
178.5203 -13.5
178.5496 -13.5
178.5815 -13.5
178.6144 -13.5
178.6478 -13.5
178.6762 -13.5
178.7096 -13.5
178.7428 -13.5
178.7741 -13.5
178.8075 -13.5
178.84 -13.5
178.8733 -13.5
178.906 -13.5
178.9357 -13.5
178.969 -13.5
179.0023 -13.5
179.0341 -13.5
179.0656 -13.5
179.0954 -13.5
179.1287 -13.5
179.1615 -13.5
179.1949 -13.5
179.2282 -13.5
179.2585 -13.5
179.2919 -13.5
179.3215 -13.5
179.3548 -13.5
179.3857 -13.5
179.4158 -13.5
179.4491 -13.5
179.4792 -13.5
179.5104 -13.5
179.5389 -13.5
179.5699 -13.5
179.6032 -13.5
179.6359 -13.5
179.6692 -13.5
179.6969 -13.5
179.7275 -13.5
179.7608 -13.5
179.7941 -13.5
179.8275 -13.5
179.8599 -13.5
179.8924 -13.5
179.9257 -13.5
179.959 -13.5
179.9893 -13.5
180.0227 -13.5
180.056 -13.5
180.0893 -13.5
180.1227 -13.5
180.1525 -13.5
180.1841 -13.5
180.2124 -13.5
180.2457 -13.5
180.2763 -13.5
180.3077 -13.5
180.3366 -13.5
180.3699 -13.5
180.4032 -13.5
180.4366 -13.5
180.4655 -13.5
180.4983 -13.5
180.5291 -13.5
180.5625 -13.5
180.5921 -13.5
180.6221 -13.5
180.6554 -13.5
180.6843 -13.5
180.7177 -13.5
180.7507 -13.5
180.7813 -13.5
180.8115 -13.5
180.8441 -13.5
180.8775 -13.5
180.9108 -13.5
180.9441 -13.5
180.9722 -13.5
181.0039 -13.5
181.0372 -13.5
181.0668 -13.5
181.098 -13.5
181.1299 -13.5
181.1611 -13.5
181.1944 -13.5
181.2241 -13.5
181.2555 -13.5
181.2877 -13.5
181.3194 -13.5
181.3528 -13.5
181.3836 -13.5
181.4169 -13.5
181.4503 -13.5
181.483 -13.5
181.5164 -13.5
181.5466 -13.5
181.5759 -13.5
181.6075 -13.5
181.6389 -13.5
181.6722 -13.5
181.7038 -13.5
181.7337 -13.5
181.7659 -13.5
181.7979 -13.5
181.8312 -13.5
181.8596 -13.5
181.8929 -13.5
181.9233 -13.5
181.9526 -13.5
181.9859 -13.5
182.0193 -13.5
182.0526 -13.5
182.0859 -13.5
182.116 -13.5
182.1493 -13.5
182.1792 -13.5
182.2092 -13.5
182.2371 -13.5
182.2704 -13.5
182.3038 -13.5
182.3371 -13.5
182.3657 -13.5
182.399 -13.5
182.4309 -13.5
182.4642 -13.5
182.4955 -13.5
182.5288 -13.5
182.5591 -13.5
182.592 -13.5
182.6254 -13.5
182.6552 -13.5
182.6885 -13.5
182.7174 -13.5
182.7477 -13.5
182.781 -13.5
182.8143 -13.5
182.846 -13.5
182.8749 -13.5
182.9056 -13.5
182.939 -13.5
182.9694 -13.5
182.9992 -13.5
183.0305 -13.5
183.0616 -13.5
183.095 -13.5
183.1242 -13.5
183.1535 -13.5
183.1868 -13.5
183.2193 -13.5
183.2526 -13.5
183.2829 -13.5
183.3155 -13.5
183.3456 -13.5
183.3789 -13.5
183.4122 -13.5
183.4444 -13.5
183.4777 -13.5
183.5064 -13.5
183.5374 -13.5
183.5707 -13.5
183.5993 -13.5
183.632 -13.5
183.6634 -13.5
183.6954 -13.5
183.7287 -13.5
183.7568 -13.5
183.7873 -13.5
183.8202 -13.5
183.8536 -13.5
183.8869 -13.5
183.9165 -13.5
183.9498 -13.5
183.9793 -13.5
184.0121 -13.5
184.0454 -13.5
184.0788 -13.5
184.1075 -13.5
184.1409 -13.5
184.1741 -13.5
184.2074 -13.5
184.2394 -13.5
184.2728 -13.5
