時間[s] タイヤの舵角[deg]
0 0
0.02 1.95
0.05333333 1.95
0.08666666 1.95
0.12 1.95
0.1491418 1.95
0.1824751 1.95
0.2113646 1.95
0.2368413 1.95
0.2642575 1.95
0.2923635 1.95
0.3217705 1.95
0.3499423 1.95
0.3770222 1.95
0.4064 1.95
0.4370807 1.95
0.4639247 1.95
0.4953708 1.95
0.5282861 1.95
0.5558395 1.95
0.5839415 1.95
0.6109944 1.95
0.6443278 1.95
0.6740869 1.95
0.7032596 1.95
0.7319863 1.95
0.7598587 1.95
0.7861289 1.95
0.8194623 1.95
0.8527956 1.95
0.8794745 1.95
0.9080454 1.95
0.9369812 1.95
0.9675935 1.95
0.9976446 1.95
1.028533 1.95
1.056071 1.95
1.086273 1.95
1.117713 1.95
1.146905 1.95
1.179092 1.95
1.206682 1.95
1.23936 1.95
1.266655 1.95
1.294721 1.95
1.325676 1.95
1.357919 1.95
1.386224 1.95
1.414345 1.95
1.445273 1.95
1.474246 1.95
1.504269 1.95
1.536228 1.95
1.568284 1.95
1.59669 1.95
1.626658 1.95
1.65435 1.95
1.687208 1.95
1.716728 1.95
1.749216 1.95
1.778994 2.4
1.812327 2.4
1.844047 2.6
1.872856 3.05
1.899281 3.05
1.932344 3.45
1.962214 3.45
1.989823 3.7
2.018548 4.15
2.047873 4.15
2.077537 4.15
2.105895 4.15
2.136425 4.35
2.169759 4.35
2.202066 4.35
2.233979 4.35
2.261325 4.35
2.291009 4.35
2.324342 4.35
2.355435 4.35
2.387218 4.35
2.4178 4.35
2.447064 4.35
2.480397 4.35
2.509415 4.35
2.539377 4.35
2.569837 4.35
2.599115 4.35
2.628641 4.35
2.657162 4.35
2.688804 4.35
2.718049 4.35
2.749454 4.35
2.781519 4.35
2.813296 4.35
2.841291 4.35
2.868429 4.35
2.896609 4.35
2.925766 4.35
2.954058 4.35
2.980978 4.35
3.010693 4.35
3.038562 4.35
3.067705 4.35
3.094942 4.35
3.124017 4.35
3.153996 4.35
3.182468 4.35
3.215802 4.35
3.246396 4.35
3.278139 4.35
3.307854 4.35
3.338883 4.35
3.370915 4.35
3.402447 4.35
3.43578 4.35
3.463944 4.35
3.494973 4.35
3.528306 4.35
3.55841 4.15
3.585713 4.15
3.617641 4.15
3.645409 4.15
3.677503 4.15
3.709677 4.15
3.739242 4.15
3.770866 4.15
3.800134 4.15
3.832432 4.15
3.865765 4.15
3.898257 4.15
3.931591 4.15
3.959445 4.15
3.992305 4.15
4.024241 4.15
4.055665 4.15
4.083682 4.15
4.114001 4.15
4.143744 4.15
4.176078 4.15
4.209411 4.15
4.237786 4.15
4.266569 4.15
4.29561 4.15
4.327259 4.15
4.359557 4.15
4.389601 4.15
4.417193 4.15
4.445181 4.15
4.475102 4.15
4.504153 4.15
4.534731 4.15
4.568064 4.15
4.600266 4.15
4.63043 4.15
4.658988 4.15
4.690151 4.15
4.723484 4.15
4.754827 4.15
4.786083 4.15
4.81812 4.15
4.848125 4.15
4.87578 4.15
4.904937 4.15
4.93407 4.15
4.965301 4.15
4.994567 4.15
5.0279 4.15
5.061234 4.15
5.094529 4.15
5.122862 4.15
5.151324 4.15
5.184132 4.15
5.211514 4.15
5.239095 4.15
5.27048 4.15
5.299649 4.15
5.331161 4.15
5.364495 4.15
5.394524 4.15
5.427545 4.15
5.458319 4.15
5.491652 4.15
5.524986 4.15
5.552078 4.15
5.580698 4.15
5.609586 4.15
5.639767 4.15
5.668118 4.15
5.698144 4.15
5.72651 4.15
5.756557 4.15
5.78989 4.15
5.819717 4.15
5.848487 4.15
5.875527 4.15
5.904222 4.15
5.933135 4.15
5.96454 4.15
5.997873 4.15
6.0295 4.15
6.057851 4.15
6.087255 4.15
6.118612 4.15
6.14568 4.15
6.175489 4.15
6.205021 4.15
6.231838 4.15
6.258482 4.15
6.287765 4.15
6.318633 4.15
6.351918 4.15
6.384049 4.15
6.416141 4.15
6.447072 4.15
6.476469 4.15
6.503559 4.15
6.53511 4.15
6.563758 4.15
6.597092 4.15
6.625203 4.15
6.658536 4.15
6.691059 4.15
6.719658 4.15
6.751005 4.15
6.784338 4.15
6.817478 4.15
6.846725 4.15
6.877856 4.15
6.90692 4.15
6.93694 4.15
6.966435 4.15
6.994937 4.15
7.028271 4.15
7.057045 4.15
7.088737 4.15
7.116004 4.15
7.149337 4.15
7.178799 4.15
7.209175 4.15
7.240091 4.15
7.271183 4.15
7.304516 4.15
7.335862 4.15
7.364065 4.15
7.393576 4.15
7.422523 4.15
7.450212 4.15
7.478166 4.15
7.507828 4.15
7.540544 4.15
7.573877 4.15
7.603096 4.15
7.633723 4.15
7.665916 4.15
7.698843 4.15
7.730779 4.15
7.760291 4.15
7.790286 4.15
7.818584 4.15
7.851918 4.15
7.881323 4.15
7.912072 4.15
7.942635 4.15
7.971837 4.15
8.003607 4.15
8.032519 4.15
8.065027 4.15
8.09836 4.15
8.128223 4.15
8.161556 4.15
8.19489 4.15
8.221087 4.15
8.251151 4.15
8.281408 4.15
8.314741 4.15
8.343344 4.15
8.37593 4.15
8.40684 4.15
8.440028 4.15
8.469682 4.15
8.499349 4.15
8.532681 4.15
8.562882 4.15
8.592403 4.15
8.622953 4.15
8.653209 4.15
8.682469 4.15
8.714828 4.15
8.742421 4.15
8.770689 4.15
8.802387 4.15
8.834365 4.15
8.867699 4.15
8.895314 4.15
8.925628 4.15
8.955305 4.15
8.988639 4.15
9.018758 4.15
9.049761 4.15
9.081754 4.35
9.11115 4.35
9.1437 4.35
9.172794 4.35
9.201513 4.35
9.229044 4.35
9.258709 4.35
9.292042 4.35
9.325027 4.35
9.354855 4.35
9.383718 4.35
9.413656 4.35
9.442745 4.35
9.473258 4.35
9.505389 4.35
9.536951 4.35
9.566672 4.35
9.599272 4.35
9.632605 4.35
9.665856 4.35
9.693612 4.35
9.722412 4.35
9.755295 4.35
9.788628 4.35
9.81869 4.35
9.847885 4.35
9.880797 4.35
9.910577 4.35
9.93839 4.35
9.967854 4.35
9.999024 4.35
10.03099 4.35
10.06066 4.35
10.09396 4.35
10.12374 4.35
10.15312 4.35
10.17986 4.35
10.21245 4.35
10.23934 4.35
10.26871 4.35
10.29581 4.35
10.32436 4.35
10.35211 4.35
10.38317 4.35
10.4165 4.35
10.44699 4.35
10.47451 4.35
10.50415 4.35
10.53436 4.35
10.56466 4.35
10.59799 4.35
10.62977 4.35
10.6631 4.35
10.69186 4.35
10.72519 4.35
10.7543 4.35
10.78683 4.35
10.81664 4.35
10.84834 4.35
10.87632 4.35
10.90333 4.35
10.93349 4.35
10.96682 4.35
10.99897 4.35
11.02676 4.35
11.05919 4.35
11.0892 4.35
11.118 4.35
11.14749 4.35
11.18064 4.35
11.20904 4.35
11.24204 4.35
11.26931 4.35
11.30015 4.35
11.33145 4.35
11.36137 4.35
11.39001 4.35
11.42071 4.35
11.44997 4.35
11.48225 4.35
11.51558 4.35
11.54761 4.35
11.5805 4.35
11.61383 4.35
11.64179 4.35
11.67148 4.35
11.70481 4.35
11.73777 4.35
11.76578 4.35
11.79531 4.35
11.82595 4.35
11.85496 4.35
11.88623 4.35
11.91664 4.35
11.94714 4.35
11.97612 4.35
12.00702 4.35
12.03883 4.35
12.06781 4.35
12.10115 4.35
12.13304 4.35
12.16556 4.35
12.19767 4.35
12.22817 4.35
12.25554 4.35
12.28764 4.35
12.31777 4.35
12.34746 4.35
12.37728 4.35
12.41062 4.55
12.43926 4.55
12.46713 4.55
12.4981 4.55
12.53101 4.8
12.56272 5
12.59193 5
12.62234 5.2
12.65567 5.45
12.68816 5.45
12.71637 5.85
12.7497 6.3
12.77864 6.3
12.80801 6.55
12.84134 6.55
12.87104 6.75
12.90289 7.2
12.93211 7.2
12.9644 7.4
12.99214 7.4
13.02234 7.4
13.05393 7.6
13.08345 7.6
13.11164 7.6
13.14359 7.6
13.17349 7.6
13.20253 7.6
13.23181 7.6
13.26515 7.6
13.29452 7.6
13.32785 7.6
13.35748 7.6
13.39082 7.6
13.42003 7.6
13.4485 7.85
13.47785 7.85
13.51118 8.05
13.54232 8.3
13.57226 8.3
13.60559 8.5
13.63892 8.7
13.66886 8.7
13.69771 8.95
13.73104 9.15
13.76172 9.15
13.79431 9.35
13.82531 9.35
13.85605 9.35
13.88938 9.35
13.92115 9.35
13.95242 9.35
13.9796 9.35
14.01027 9.35
14.0436 9.6
14.07199 9.6
14.09947 9.8
14.1298 10.25
14.16314 10.25
14.19366 10.45
14.22284 10.45
14.25469 10.45
14.28279 10.45
14.31535 10.45
14.34763 10.45
14.37741 10.45
14.41074 10.45
14.44408 10.45
14.47337 10.45
14.50194 10.45
14.5307 10.45
14.56163 10.45
14.5881 10.45
14.61873 10.45
14.65206 10.7
14.67955 10.7
14.71288 10.7
14.74621 10.9
14.77955 10.9
14.80935 10.9
14.84268 10.9
14.87492 10.9
14.90248 10.9
14.93272 10.9
14.96004 10.9
14.99338 10.9
15.02504 10.9
15.05838 10.9
15.0856 10.9
15.11424 10.9
15.14757 10.9
15.17488 10.9
15.20381 10.9
15.23551 10.9
15.26814 10.9
15.29841 10.9
15.33138 10.9
15.36163 10.9
15.392 10.9
15.42454 10.9
15.45128 10.9
15.48002 10.9
15.51212 10.9
15.543 10.9
15.57633 10.9
15.60485 10.9
15.63527 10.9
15.66577 10.9
15.6953 10.9
15.72778 10.9
15.75861 10.9
15.7887 10.9
15.82173 10.9
15.85506 10.9
15.88487 10.9
15.91314 10.9
15.94107 10.9
15.9744 10.9
16.00455 10.9
16.03456 10.9
16.06686 10.9
16.09867 10.9
16.132 10.9
16.15966 10.9
16.19103 10.9
16.22094 10.9
16.2505 10.9
16.27734 10.9
16.30463 10.9
16.33753 10.9
16.3705 10.9
16.40383 10.9
16.43598 10.9
16.46931 10.9
16.4993 10.9
16.53213 10.9
16.5613 10.9
16.59464 10.9
16.6256 10.9
16.65554 10.9
16.6837 10.9
16.71442 10.9
16.74549 10.9
16.77716 10.9
16.80883 10.9
16.83999 10.9
16.87219 10.9
16.90553 10.9
16.93366 10.9
16.96625 10.9
16.99665 10.9
17.02571 10.9
17.05904 10.9
17.08843 10.9
17.11941 10.9
17.15275 10.9
17.18288 10.9
17.21297 10.9
17.24107 10.9
17.2707 10.9
17.2986 10.9
17.33021 10.9
17.36102 10.9
17.38957 10.9
17.41784 10.9
17.4511 10.9
17.48126 10.9
17.5098 10.9
17.54178 10.9
17.57097 10.9
17.60056 10.9
17.62978 10.9
17.65682 10.9
17.69015 10.9
17.72348 10.9
17.75405 10.9
17.78354 10.9
17.81624 10.9
17.8469 10.9
17.87803 10.9
17.91136 10.9
17.94214 10.9
17.9732 10.9
18.00105 10.9
18.03438 10.9
18.06545 10.9
18.09572 10.9
18.12448 10.9
18.15073 10.9
18.181 10.9
18.21281 10.9
18.2426 10.9
18.26983 10.9
18.30206 10.9
18.3354 10.9
18.36873 10.9
18.40032 10.9
18.4302 10.9
18.46311 10.9
18.49576 10.9
18.52475 10.9
18.5543 10.9
18.58764 10.9
18.61525 10.9
18.64097 10.9
18.67224 10.9
18.70205 10.9
18.73216 10.9
18.76081 10.9
18.79374 10.9
18.82154 10.9
18.85256 10.9
18.88245 10.9
18.91179 10.9
18.94495 10.9
18.97228 10.9
19.00392 10.9
19.0333 10.9
19.06234 10.9
19.0944 10.9
19.12216 10.9
19.15314 10.9
19.18648 10.9
19.21816 10.9
19.25149 10.9
19.28304 10.9
19.31637 10.9
19.34513 10.9
19.37332 10.9
19.40173 10.9
19.43309 10.9
19.45996 10.9
19.48729 10.9
19.51437 10.9
19.54344 10.9
19.57104 10.9
19.59925 10.9
19.62819 10.9
19.66001 10.9
19.69257 10.9
19.72255 10.9
19.75182 10.9
19.78082 10.9
19.80906 10.9
19.84005 10.9
19.87037 10.9
19.9037 10.9
19.93611 10.9
19.96944 10.9
19.99991 10.9
20.02868 10.9
20.05857 10.9
20.08879 10.9
20.11835 10.9
20.1482 10.9
20.17649 10.9
20.20538 10.9
20.23376 10.9
20.26175 10.9
20.29331 10.9
20.32161 10.9
20.35141 10.9
20.38221 10.9
20.41362 10.9
20.44571 10.9
20.47721 10.9
20.50787 10.9
20.53658 10.9
20.56497 10.9
20.5983 10.9
20.63135 10.9
20.66468 10.9
20.69341 10.9
20.7212 10.9
20.74774 10.9
20.77675 10.9
20.8083 10.9
20.83711 10.9
20.86914 10.9
20.90248 10.9
20.93099 10.9
20.9628 10.9
20.99159 10.9
21.02432 10.9
21.05166 10.9
21.08316 10.9
21.1165 10.9
21.14922 10.9
21.17732 10.9
21.21065 10.9
21.2423 10.9
21.27321 10.9
21.30128 10.9
21.33287 10.9
21.3638 10.9
21.39713 10.9
21.43005 10.9
21.46338 10.9
21.49322 10.9
21.52206 10.9
21.54955 10.9
21.57985 10.9
21.60963 10.9
21.64214 10.9
21.67055 10.9
21.70388 10.9
21.73337 10.9
21.76264 11.1
21.79463 11.1
21.82448 11.1
21.85341 11.1
21.88212 11.1
21.91545 11.1
21.94466 11.1
21.97294 11.1
22.00458 11.1
22.0323 11.1
22.06559 11.35
22.09893 11.35
22.12666 11.35
22.1571 11.35
22.18663 11.35
22.2176 11.35
22.25 11.35
22.27827 11.55
22.31039 11.55
22.34259 11.55
22.37581 11.75
22.40422 11.75
22.43279 11.75
22.46132 11.75
22.48946 11.75
22.51754 12
22.5483 12
22.57687 12
22.60928 12.2
22.63961 12.2
22.67248 12.45
22.70484 12.45
22.73491 12.65
22.76303 12.85
22.79555 12.85
22.82808 12.85
22.85708 12.85
22.88904 12.85
22.91858 12.85
22.948 12.85
22.97736 12.85
23.00562 12.85
23.03528 12.85
23.0672 12.85
23.09841 12.85
23.12763 12.85
23.15739 12.85
23.18921 12.85
23.22254 12.85
23.25211 12.85
23.28545 12.85
23.31583 12.85
23.34526 12.85
23.37435 12.85
23.4066 12.85
23.43621 12.85
23.46503 12.65
23.49837 12.65
23.53034 12.45
23.56151 12.2
23.58909 12.2
23.61641 12.2
23.64638 12.2
23.67972 12
23.70976 12
23.73789 12
23.77117 12
23.80057 11.55
23.83119 11.55
23.85925 11.1
23.89058 11.1
23.91866 10.45
23.94716 10.45
23.97467 9.8
24.00578 9.35
24.03626 9.35
24.06517 9.15
24.09808 9.15
24.13141 9.15
24.16127 9.15
24.1946 9.15
24.22768 9.15
24.25789 8.95
24.29123 8.95
24.32427 8.7
24.35546 8.05
24.38639 8.05
24.41622 7.6
24.44509 6.95
24.47843 6.95
24.51176 6.75
24.53994 6.55
24.56751 6.55
24.59742 6.55
24.62752 6.55
24.66036 6.55
24.69035 6.55
24.71922 6.55
24.75255 6.75
24.78536 6.75
24.81429 6.95
24.84185 7.2
24.87168 7.2
24.90501 7.4
24.93649 7.4
24.96982 7.85
25.00235 8.05
25.03517 8.3
25.06543 8.3
25.09351 8.3
25.1222 8.3
25.15179 8.3
25.1796 8.3
25.21176 8.3
25.24509 8.3
25.27843 8.3
25.31176 8.05
25.34509 7.85
25.37605 7.6
25.40555 7.6
25.4378 7.4
25.47113 7.4
25.49943 7.4
25.52975 7.4
25.55733 7.4
25.58508 7.4
25.61842 7.4
25.64832 7.4
25.67627 7.4
25.70349 7.4
25.73286 7.4
25.76182 7.4
25.79337 7.4
25.82126 7.2
25.8508 7.2
25.88016 7.2
25.91092 7.2
25.93908 7.2
25.96966 7.2
25.99863 7.2
26.02824 7.2
26.05876 7.2
26.0882 7.2
26.11988 7.2
26.14795 7.2
26.18081 7.2
26.21056 7.2
26.2409 7.2
26.26925 7.2
26.29668 7.2
26.32843 7.2
26.35741 7.2
26.38606 7.2
26.41615 7.2
26.44654 7.2
26.47747 7.2
26.50583 7.2
26.5363 7.2
26.56772 7.2
26.59777 7.2
26.63014 7.2
26.66156 7.2
26.69418 7.2
26.72417 7.2
26.75277 7.2
26.78032 7.2
26.80885 7.2
26.84196 7.4
26.87026 7.4
26.89792 7.6
26.93126 7.85
26.96032 7.85
26.99128 7.85
27.02154 7.85
27.0519 7.85
27.08502 7.85
27.11787 7.85
27.14547 7.85
27.17489 8.05
27.20636 8.05
27.23672 8.3
27.26546 8.3
27.29432 8.3
27.32608 8.5
27.35486 8.5
27.38406 8.5
27.41286 8.5
27.44143 8.5
27.46991 8.5
27.50132 8.5
27.53288 8.5
27.56194 8.5
27.5905 8.5
27.62048 8.5
27.65297 8.5
27.68448 8.5
27.714 8.5
27.74065 8.5
27.76909 8.5
27.79694 8.5
27.82784 8.5
27.85984 8.5
27.889 8.5
27.92233 8.5
27.95342 8.5
27.98221 8.5
28.01174 8.5
28.04341 8.5
28.07608 8.5
28.10541 8.5
28.13791 8.5
28.16667 8.5
28.1971 8.5
28.23042 8.5
28.26014 8.5
28.29226 8.5
28.3223 8.5
28.35159 8.5
28.38493 8.5
28.41464 8.5
28.44636 8.5
28.47969 8.5
28.51204 8.5
28.54516 8.5
28.57525 8.5
28.60772 8.5
28.63971 8.5
28.67304 8.5
28.7015 8.5
28.73444 8.5
28.7661 8.5
28.79603 8.5
28.82394 8.5
28.8519 8.5
28.88274 8.5
28.91314 8.5
28.94403 8.5
28.97556 8.5
29.00877 8.5
29.0421 8.5
29.07544 8.5
29.10661 8.5
29.13976 8.5
29.17018 8.7
29.19918 8.7
29.22699 8.95
29.25748 8.95
29.28547 9.35
29.31409 9.6
29.34665 9.6
29.37684 10
29.41017 10.45
29.43753 10.45
29.46617 10.7
29.49507 10.7
29.52497 10.9
29.5567 10.9
29.58975 11.1
29.61985 11.1
29.64831 11.1
29.677 11.1
29.70568 11.1
29.7344 11.1
29.76721 11.1
29.79552 11.1
29.82321 11.1
29.85654 11.1
29.88987 11.1
29.91768 11.1
29.94443 11.1
29.97776 11.1
30.00802 11.1
30.03675 11.1
30.07008 11.1
30.09851 11.1
30.12953 11.1
30.16161 11.1
30.1884 11.1
30.21829 11.1
30.24904 11.1
30.27832 11.1
30.3074 11.1
30.33702 11.1
30.36809 11.1
30.39682 11.1
30.43015 11.1
30.46349 11.1
30.49682 11.1
30.52897 11.1
30.56015 11.1
30.59348 11.1
30.62681 11.1
30.65837 11.1
30.68656 11.1
30.71595 11.1
30.74929 11.1
30.78262 11.1
30.80982 11.1
30.83917 11.1
30.87079 11.1
30.90412 11.1
30.93746 11.35
30.96807 11.55
30.99776 11.55
31.02729 12
31.06063 12.45
31.09344 12.45
31.12263 12.65
31.15062 12.65
31.18064 13.1
31.21398 13.3
31.24356 13.3
31.27201 13.5
31.30534 13.5
31.33868 13.5
31.37201 13.75
31.40316 14.15
31.43166 14.15
31.46195 14.6
31.49118 15.25
31.52452 15.25
31.55703 16.15
31.58796 16.15
31.62129 16.8
31.65399 17.45
31.68732 18.1
31.71741 18.1
31.74887 18.55
31.77742 18.55
31.80731 19
31.84064 19.2
31.87398 19.2
31.90699 19.65
31.93485 20.05
31.96461 20.05
31.99795 20.3
32.03078 20.95
32.05904 20.95
32.08749 21.4
32.12082 21.6
32.15416 21.6
32.1828 22.05
32.21444 22.05
32.24395 22.5
32.27375 23.15
32.30708 23.15
32.34041 23.55
32.37287 24.2
32.40165 24.2
32.43194 24.9
32.46527 25.3
32.4955 25.3
32.52884 25.75
32.55888 26.2
32.58905 26.2
32.62238 26.2
32.65061 26.4
32.6783 26.4
32.71164 26.4
32.74497 26.65
32.77831 26.65
32.80952 26.65
32.83936 26.65
32.86876 26.65
32.90083 26.65
32.93416 26.65
32.96502 26.65
32.99835 26.65
33.02694 26.65
33.06028 26.65
33.09361 26.65
33.12183 26.65
33.15075 26.65
33.18409 26.85
33.21742 26.85
33.25076 27.3
33.28306 27.7
33.31057 27.7
33.33997 28.35
33.37331 28.6
33.40664 28.6
33.43439 29.05
33.46451 29.05
33.49784 29.05
33.52843 29.05
33.56176 28.8
33.59509 28.8
33.62582 28.8
33.65429 28.8
33.68358 29.05
33.71691 29.05
33.74583 29.05
33.77917 29.05
33.80679 29.05
33.84012 29.05
33.87346 29.25
33.90144 29.25
33.92945 29.25
33.95858 29.25
33.98934 29.25
34.02267 29.25
34.05066 29.25
34.084 29.25
34.11396 29.25
34.14461 29.25
34.17717 29.25
34.20623 29.25
34.23538 29.25
34.26401 29.25
34.29734 29.25
34.33067 29.25
34.36199 29.25
34.38995 29.25
34.41803 29.25
34.44785 29.25
34.48118 29.25
34.51033 29.25
34.54269 29.45
34.57537 29.45
34.60549 29.7
34.63882 29.7
34.66629 29.7
34.69458 29.9
34.72342 29.9
34.75675 30.35
34.79008 30.8
34.82007 30.8
34.8534 31.45
34.88171 32.3
34.90913 32.3
34.94247 32.95
34.9758 33.6
35.00471 33.6
35.03669 34.25
35.06653 34.25
35.09986 34.95
35.1294 35.6
35.15815 35.6
35.19004 35.8
35.21926 35.8
35.25259 36
35.2802 36.25
35.30899 36.25
35.33786 36.65
35.36638 36.65
35.39971 36.9
35.42841 37.1
35.45909 37.1
35.48848 37.35
35.51982 37.35
35.55316 37.35
35.5829 37.55
35.61116 37.55
35.6391 37.55
35.67062 37.75
35.70395 38
35.73285 38
35.75993 38.4
35.79001 38.4
35.82335 38.85
35.85668 39.1
35.88372 39.1
35.91426 39.1
35.94379 39.1
35.97607 39.1
36.0094 39.3
36.03915 39.3
36.0685 39.95
36.09751 40.8
36.12999 40.8
36.16332 41.7
36.19606 43.65
36.22939 43.65
36.25663 45.2
36.28528 45.2
36.31861 46.5
36.3477 48.05
36.3783 48.05
36.40746 49.8
36.4371 51.1
36.47044 51.1
36.50011 52.4
36.5302 53.7
36.56238 53.7
36.59052 54.8
36.62386 56.1
36.65719 56.1
36.68697 57
36.7177 58.5
36.75058 58.5
36.78392 59.4
36.8125 59.4
36.84094 60.7
36.86802 61.6
36.89699 61.6
36.9301 62.45
36.96344 63.55
36.99354 63.55
37.02578 64.4
37.05737 64.4
37.08559 65.5
37.11892 66.4
37.1503 66.4
37.17903 67.5
37.20827 68.8
37.23774 68.8
37.27107 69.65
37.3044 70.75
37.33399 70.75
37.36108 71.85
37.39442 72.95
37.42775 72.95
37.45607 73.8
37.48373 73.8
37.51308 76
37.54631 77.75
37.57964 77.75
37.61298 79.25
37.64373 81.45
37.67396 81.45
37.70543 83.2
37.73876 84.75
37.76795 84.75
37.79719 86.05
37.82637 86.05
37.8597 87.55
37.89303 88.65
37.92268 88.65
37.95024 90.2
37.97809 91.5
38.01142 91.5
38.04475 92.8
38.07296 93.9
38.10472 93.9
38.13573 94.55
38.16635 94.55
38.19968 94.8
38.23079 94.8
38.26078 94.8
38.29411 94.8
38.32201 94.8
38.35534 94.8
38.38781 94.8
38.41734 94.8
38.4453 94.8
38.47864 94.8
38.51197 95.45
38.54531 95.45
38.57278 96.3
38.60404 96.3
38.63457 97.4
38.66791 98.3
38.70124 98.3
38.73034 99.35
38.75918 100
38.78828 100
38.82161 100.7
38.84864 101.35
38.87866 101.35
38.91014 101.55
38.94154 101.55
38.97488 101.55
39.00469 101.55
39.03794 101.55
39.06723 101.55
39.09499 102
39.12833 102
39.15728 102.2
39.18648 102.2
39.21566 102.2
39.24661 102.2
39.27995 102.2
39.31328 102.2
39.34101 102.2
39.37108 102.2
39.39994 102.65
39.43328 102.85
39.46161 102.85
39.49494 103.3
39.52827 103.75
39.55624 103.75
39.58871 103.75
39.61745 103.75
39.6465 103.75
39.67722 103.75
39.70424 103.75
39.73676 103.75
39.7701 103.75
39.79943 103.75
39.82699 103.75
39.86032 103.75
39.8899 103.75
39.92323 103.75
39.95532 103.75
39.98576 103.75
40.01433 103.75
40.04659 103.75
40.07992 103.75
40.11325 103.75
40.1434 103.75
40.17205 103.75
40.19974 103.75
40.23307 103.75
40.26158 103.75
40.29491 103.75
40.32824 103.75
40.35749 103.75
40.39082 103.75
40.42416 103.75
40.45116 103.75
40.4829 103.75
40.51356 103.75
40.54689 103.75
40.57721 103.75
40.60624 103.75
40.63495 103.75
40.66786 103.95
40.70084 104.4
40.73102 104.4
40.76435 104.6
40.79487 105.05
40.82327 105.05
40.85661 105.25
40.88994 105.7
40.91812 105.7
40.94484 106.6
40.97441 106.6
41.00774 107.25
41.03715 107.9
41.06573 107.9
41.09815 108.75
41.12986 109.85
41.16319 109.85
41.19118 111.15
41.22387 111.15
41.25264 112.25
41.28597 113.55
41.3193 114.9
41.35046 114.9
41.38267 116.2
41.41218 116.2
41.44252 117.7
41.47585 119.05
41.50919 119.05
41.53765 120.55
41.5654 122.1
41.59454 122.1
41.62787 123.6
41.65491 123.6
41.68241 124.95
41.71418 126.25
41.74553 126.25
41.77886 127.1
41.81191 127.75
41.84154 127.75
41.87102 128.2
41.90374 128.2
41.93708 128.2
41.97041 128.4
42.00374 128.4
42.03366 128.4
42.06134 128.4
42.09468 128.4
42.12756 128.4
42.1558 128.4
42.18652 128.4
42.21797 128.4
42.2513 128.4
42.27842 128.4
42.30864 128.4
42.34197 128
42.37531 128
42.40864 127.55
42.43904 126.65
42.47237 126.65
42.50133 125.15
42.53264 125.15
42.56598 123.4
42.59629 121.2
42.62798 121.2
42.66131 118.6
42.68898 115.75
42.72232 115.75
42.75565 113.35
42.78898 110.75
42.81537 110.75
42.84442 108.55
42.87775 105.9
42.91087 105.9
42.94051 103.5
42.97022 103.5
42.99956 101.1
43.03289 99.35
43.06369 99.35
43.0941 96.95
43.12293 96.95
43.1521 94.55
43.18543 91.3
43.21876 88.45
43.25209 88.45
43.28193 84.95
43.30989 81.45
43.34323 81.45
43.37313 77.95
43.40122 77.95
43.42859 75.35
43.4612 72.05
43.49454 72.05
43.52398 68.8
43.55732 67.05
43.5875 67.05
43.61619 64.85
43.64952 62.9
43.67689 62.9
43.70564 61.15
43.73426 61.15
43.76193 58.95
43.79075 58.95
43.82409 57
43.85615 54.8
43.88833 51.75
43.91963 51.75
43.94947 49.35
43.9828 46.05
44.01241 46.05
44.0444 43.65
44.07597 43.65
44.1093 41.7
44.14264 40.6
44.17519 40.6
44.20326 39.75
44.23383 38.65
44.26509 38.65
44.29843 37.55
44.3277 36.65
44.35667 36.65
44.38701 36.25
44.41506 36.25
44.44839 35.8
44.48173 35.8
44.51128 35.6
44.54404 35.6
44.57411 34.95
44.60744 34.5
44.63582 34.5
44.66376 33.85
44.69548 33.85
44.72561 33.6
44.75894 33.6
44.78989 33.6
44.82173 34.05
44.85076 34.7
44.88409 34.7
44.91742 35.15
44.95057 35.35
44.98275 35.35
45.01215 35.6
45.03936 35.6
45.0727 35.6
45.10603 36
45.13762 36.65
45.16725 36.65
45.1983 37.35
45.23163 38.2
45.26344 38.2
45.29678 38.85
45.32585 38.85
45.35579 39.3
45.38912 39.5
45.41986 39.5
45.44982 39.75
45.47903 40.4
45.51236 40.4
45.5457 41.05
45.57604 41.7
45.607 41.7
45.63697 42.15
45.66499 42.15
45.69833 42.35
45.72718 42.55
45.75914 42.55
45.78528 43
45.81475 43.25
45.84809 43.25
45.87806 43.65
45.9059 44.3
45.93463 44.3
45.96465 44.3
45.99799 44.3
46.03132 44.55
46.06465 44.55
46.09798 44.55
46.1269 44.55
46.16023 44.55
46.18832 44.55
46.22166 44.3
46.24982 44.3
46.27736 44.3
46.31069 43.65
46.34403 43
46.37371 43
46.40639 42.15
46.43516 41.5
46.46849 41.5
46.49902 40.15
46.52666 39.1
46.55546 39.1
46.58745 37.55
46.62078 36.25
46.64939 36.25
46.68037 34.25
46.71371 32.75
46.74247 32.75
46.7758 29.7
46.80626 26.85
46.83776 26.85
46.86675 24.2
46.89538 24.2
46.92871 22.5
46.96205 20.05
46.99465 20.05
47.0237 18.55
47.05704 16.35
47.09037 14.6
47.12341 14.6
47.15287 12.65
47.18447 12.65
47.21624 10.9
47.24957 9.35
47.27696 9.35
47.30624 8.5
47.33957 7.6
47.3714 7.6
47.40474 6.95
47.43797 5.65
47.46731 5.65
47.49609 4.8
47.52785 4.8
47.56118 3.7
47.59037 2.4
47.6237 2.4
47.65112 1.5
47.68124 0.4
47.71458 0.4
47.74478 -0.65
47.77364 -0.65
47.80623 -1.3
47.83692 -1.7
47.87025 -1.7
47.89865 -1.7
47.93127 -1.7
47.96169 -1.7
47.99071 -1.7
48.02404 -2.6
48.05424 -2.6
48.08481 -3.7
48.11619 -5
48.14952 -5
48.18286 -5.85
48.21619 -5.85
48.244 -5.85
48.27242 -5
48.30325 -5
48.33659 -3.7
48.36913 -2.8
48.39675 -2.8
48.43008 -1.5
48.46072 0
48.49406 0
48.52305 1.95
48.55375 3.9
48.5829 3.9
48.6146 5.85
48.64794 8.5
48.67684 8.5
48.70734 10.9
48.73558 10.9
48.76521 12.85
48.79855 14.15
48.82747 14.15
48.8599 15.7
48.88648 17
48.9156 17
48.94893 18.55
48.97873 18.55
49.00674 20.05
49.03733 21.6
49.07066 21.6
49.10399 22.7
49.13495 23.8
49.16488 23.8
49.19509 24.65
49.22599 25.3
49.25933 25.3
49.28843 25.75
49.32049 25.95
49.35165 25.95
49.38217 26.2
49.41551 26.2
49.44565 26.2
49.47898 26.2
49.50843 26.2
49.53816 26.4
49.57149 26.4
49.60387 26.4
49.63243 26.4
49.66221 26.2
49.69213 26.2
49.72546 26.2
49.75238 26.2
49.78117 25.75
49.81183 24.9
49.84447 24.9
49.8778 23.55
49.90701 22.9
49.94035 22.9
49.96853 22.05
49.9973 22.05
50.03063 20.95
50.06144 20.3
50.09056 20.3
50.11972 19.2
50.15306 18.1
50.18639 18.1
50.21745 17
50.24562 15.25
50.27616 15.25
50.3055 13.3
50.33883 13.3
50.36992 12
50.39919 10.7
50.42827 10.7
50.4577 8.7
50.49103 8.7
50.52018 6.3
50.55352 4.55
50.58256 4.55
50.61269 1.95
50.64603 0.2
50.6763 0.2
50.70964 -2.8
50.74297 -4.55
50.77259 -4.55
50.80592 -5.65
50.83703 -6.1
50.86406 -6.1
50.896 -6.95
50.92466 -7.6
50.958 -7.6
50.98957 -7.85
51.01735 -7.85
51.04596 -7.85
51.07699 -8.05
51.11032 -8.05
51.14366 -8.3
51.175 -8.95
51.20433 -8.95
51.23323 -9.6
51.26657 -10
51.29498 -10
51.32351 -10.45
51.3511 -10.45
51.38053 -10.9
51.41386 -10.9
51.44623 -10.9
51.47364 -10.9
51.50375 -10.9
51.53278 -10.7
51.56611 -10.45
51.59357 -10.45
51.62691 -10
51.65505 -9.6
51.68602 -9.6
51.71935 -8.95
51.75162 -8.7
51.78426 -8.7
51.8165 -8.3
51.84647 -7.85
51.8798 -7.85
51.91043 -7.4
51.93939 -7.4
51.96754 -6.95
51.9982 -6.75
52.03154 -6.75
52.06069 -6.55
52.09131 -6.55
52.1212 -6.55
52.15162 -6.55
52.18496 -6.55
52.21455 -5.85
52.24422 -5
52.27755 -5
52.30585 -3.9
52.33919 -2.8
52.37252 -2.8
52.40309 -2.4
52.43565 -2.4
52.4631 -2.4
52.49643 -2.4
52.52977 -2.4
52.56055 -2.15
52.58744 -1.95
52.61671 -1.95
52.65005 -1.5
52.67803 -1.5
52.71136 -1.3
52.74305 -1.05
52.77467 -1.05
52.808 -0.85
52.83603 -0.4
52.86457 -0.4
52.89471 0.2
52.92792 0.2
52.96125 0.85
52.98998 1.3
53.01992 1.3
53.05 1.7
53.07779 1.7
53.11112 2.15
53.14315 2.15
53.17225 2.15
53.20559 2.15
53.23892 2.15
53.27225 2.15
53.30558 2.15
53.33892 2.15
53.37225 2.15
53.40477 2.15
53.4381 2.15
53.47025 2.15
53.49937 2.15
53.5327 2.15
53.56524 2.15
53.59858 2.15
53.62714 2.15
53.65717 2.6
53.68993 2.6
53.71813 2.8
53.75146 3.05
53.7848 3.05
53.81439 3.25
53.8452 3.25
53.87582 3.25
53.90915 3.25
53.94248 3.25
53.9698 3.25
54.00196 3.25
54.03024 3.25
54.06348 3.25
54.09103 3.25
54.11978 3.25
54.15186 3.25
54.18519 3.25
54.21852 3.25
54.25118 3.25
54.28331 3.25
54.31237 3.25
54.34265 3.25
54.37598 3.25
54.40932 3.25
54.43929 3.25
54.46863 3.25
54.49926 3.25
54.5326 3.25
54.56427 3.25
54.59151 3.25
54.62453 3.25
54.65786 3.25
54.6912 3.25
54.7181 3.25
54.74664 3.25
54.77998 3.25
54.8097 3.25
54.84303 3.7
54.87373 3.9
54.90707 3.9
54.93534 4.15
54.96412 4.15
54.99745 4.35
55.03078 4.55
55.06094 4.55
55.09209 4.55
55.12543 4.8
55.15876 4.8
55.18869 4.8
55.21658 5
55.24545 5
55.27568 5.2
55.30901 5.2
55.34234 5.2
55.37191 5.2
55.40088 5.2
55.42997 5.2
55.4633 5.2
55.49201 5.2
55.52504 5.2
55.55837 5.2
55.58559 5.2
55.61893 5.2
55.64975 5.2
55.67855 5.2
55.7067 5.45
55.73929 5.45
55.77262 5.45
55.80596 5.45
55.83353 5.45
55.86427 5.45
55.89589 5.45
55.92922 5.45
55.95732 5.45
55.99066 5.45
56.02015 5.45
56.04961 5.45
56.08294 5.45
56.11628 5.45
56.14892 5.45
56.17703 5.45
56.20433 5.45
56.23767 5.45
56.26573 5.45
56.29359 5.45
56.32113 5.2
56.35113 5.2
56.38446 5.2
56.41779 5.2
56.44796 5
56.47898 5
56.51231 5
56.54564 4.8
56.57742 4.55
56.61075 4.35
56.64 4.35
56.66904 3.9
56.70237 3.9
56.73571 3.7
56.76847 3.25
56.79703 3.25
56.8244 3.05
56.85773 2.6
56.88906 2.6
56.9224 2.15
56.95063 2.15
56.98089 1.95
57.01423 1.5
57.0456 1.5
57.07399 1.3
57.10732 1.3
57.13748 1.3
57.17081 1.3
57.20013 1.3
57.23163 1.05
57.26281 0.85
57.29595 0.85
57.32836 0.4
57.36169 0.2
57.39076 0.2
57.41979 0
57.45097 0
57.4843 0
57.51763 0
57.5477 0
57.58091 0
57.60966 0
57.64299 0
57.67632 0
57.70341 0
57.73655 0
57.76544 0
57.79877 0
57.83211 0
57.86249 0
57.89582 0
57.92427 0
57.95761 0
57.98575 0
58.01908 0
58.05226 0
58.08111 0
58.11444 0
58.14573 0.2
58.17611 0.2
58.20382 0.4
58.23335 0.65
58.26668 0.65
58.29424 0.65
58.32625 0.65
58.35815 0.65
58.39124 0.65
58.42458 0.65
58.45677 0.65
58.48658 0.85
58.51991 0.85
58.5487 0.85
58.58204 1.05
58.61205 1.3
58.64119 1.3
58.67453 1.3
58.70554 1.5
58.73888 1.5
58.76753 1.5
58.79601 1.5
58.82594 1.5
58.85856 1.5
58.89189 1.5
58.92382 1.5
58.95488 1.5
58.98822 1.5
59.01901 1.5
59.05235 1.5
59.08056 1.5
59.11107 1.5
59.14441 1.5
59.17774 1.5
59.21107 1.5
59.24299 1.5
59.27165 1.5
59.29983 1.5
59.33316 1.5
59.3665 1.5
59.39983 1.5
59.43194 1.5
59.46527 1.5
59.49646 1.5
59.5298 1.5
59.5619 1.5
59.58893 1.5
59.62014 1.5
59.65347 1.5
59.68681 1.5
59.71719 1.5
59.74826 1.5
59.77887 1.5
59.80708 1.5
59.84041 1.5
59.87021 1.5
59.90354 1.5
59.93687 1.5
59.96381 1.5
59.99714 1.5
60.02728 1.5
60.0555 1.5
60.08344 1.5
60.11295 1.5
60.14628 1.5
60.17913 1.5
60.20616 1.5
60.23743 1.5
60.26765 1.5
60.30099 1.5
60.328 1.5
60.35767 1.5
60.391 1.5
60.4234 1.5
60.45673 1.5
60.48784 1.5
60.52118 1.5
60.54846 1.5
60.57841 1.5
60.61174 1.5
60.6403 1.5
60.66912 1.5
60.70112 1.5
60.73026 1.5
60.76359 1.7
60.79172 1.7
60.81901 1.7
60.85118 1.7
60.88146 1.7
60.91479 1.7
60.94651 1.7
60.97637 1.7
61.00689 1.7
61.04022 1.7
61.07355 1.7
61.10367 1.7
61.13701 1.7
61.16571 1.7
61.19448 1.7
61.22782 1.7
61.25725 1.7
61.28647 1.7
61.31748 1.5
61.34774 1.5
61.38108 1.5
61.40881 1.5
61.43697 0.85
61.46781 0.65
61.50114 0.65
61.53447 0.4
61.563 0
61.59634 0
61.62786 -0.2
61.6612 -0.65
61.69453 -0.65
61.72447 -0.85
61.7539 -1.5
61.78271 -1.5
61.80957 -1.95
61.84236 -1.95
61.87569 -2.15
61.90375 -2.4
61.93304 -2.4
61.96243 -2.4
61.99163 -2.4
62.02497 -2.4
62.05794 -2.4
62.08644 -2.4
62.11634 -2.4
62.14733 -2.6
62.18066 -2.6
62.21144 -3.05
62.24088 -3.05
62.27314 -3.25
62.30095 -3.45
62.33428 -3.7
62.36398 -3.7
62.39234 -4.15
62.41939 -4.15
62.44997 -4.35
62.48331 -4.55
62.51399 -4.55
62.54452 -4.8
62.57472 -4.8
62.60585 -5
62.63918 -5.2
62.66627 -5.2
62.69505 -5.2
62.72449 -5.2
62.75367 -5.2
62.78701 -5.2
62.82034 -5.2
62.85274 -5.2
62.88121 -5.2
62.91454 -5.2
62.94787 -5.65
62.97718 -5.85
63.01052 -5.85
63.03913 -6.1
63.06788 -6.1
63.10121 -6.1
63.13293 -6.1
63.16036 -6.1
63.1937 -5.85
63.22562 -5.65
63.25895 -5.65
63.29005 -5.2
63.32339 -4.8
63.35273 -4.8
63.38201 -4.55
63.41534 -4.35
63.44433 -4.35
63.47491 -4.35
63.50529 -4.35
63.53291 -4.15
63.56625 -4.15
63.59467 -3.9
63.62232 -3.9
63.65158 -3.7
63.68042 -3.7
63.71376 -3.25
63.74709 -3.05
63.7757 -3.05
63.80903 -2.6
63.83882 -2.15
63.87215 -2.15
63.8988 -1.5
63.92881 -1.5
63.96035 -1.3
63.99018 -1.3
64.02351 -1.3
64.0528 -1.3
64.08281 -1.3
64.11614 -1.3
64.14529 -1.05
64.17863 -0.65
64.20945 -0.65
64.24278 -0.4
64.27086 0.2
64.30419 0.2
64.33752 0.4
64.37086 0.65
64.39772 0.65
64.42616 0.65
64.4576 0.65
64.49094 0.65
64.52427 0.65
64.55528 0.65
64.58471 0.65
64.61262 0.65
64.64571 0.65
64.67533 0.65
64.70341 0.65
64.73183 0.65
64.76202 0.65
64.79145 0.65
64.82478 0.4
64.85541 0.4
64.88361 0.4
64.91277 0.4
64.94421 0.4
64.97755 0.4
65.00495 0.4
65.03512 0.4
65.06376 0.4
65.09161 0.4
65.12479 0.4
65.15406 0.4
65.18636 0.4
65.21776 0.4
65.2471 0.4
65.28043 0.4
65.31157 0.4
65.34409 0.4
65.37334 0.4
65.40586 0.4
65.43919 0.4
65.46708 0.4
65.49544 0.4
65.52524 0.4
65.55857 0.4
65.5919 0.4
65.62524 0.4
65.65315 0.4
65.68227 0.4
65.71162 0.4
65.74496 0.4
65.77744 0.4
65.80696 0.4
65.83454 0.4
65.86288 0.4
65.89621 0.4
65.92954 0.4
65.95831 0.4
65.98825 0.4
66.01894 0.4
66.05227 0.4
66.08234 0.4
66.11556 0.4
66.1478 0.4
66.17796 0.4
66.21129 0.4
66.24437 0.4
66.27409 0.4
66.30547 0.4
66.33714 0.4
66.37048 0.4
66.39889 0.4
66.43222 0.4
66.46227 0.4
66.48911 0.4
66.52245 0.4
66.55031 0.4
66.57914 0.4
66.60645 0.4
66.63574 0.4
66.66528 0.4
66.69861 0.4
66.72581 0.4
66.75915 0.4
66.78876 0.4
66.81734 0.4
66.85051 0.4
66.88384 0.4
66.9157 0.4
66.94514 0.4
66.97457 0.4
67.0079 0.2
67.04108 0.2
67.06906 0
67.09767 0
67.12639 0
67.15972 0
67.18856 0
67.21689 0
67.25022 0
67.27929 0
67.31262 0
67.34077 0
67.36974 0
67.4026 0
67.43593 0
67.46808 0
67.50141 0
67.53202 0
67.56131 0
67.58887 0
67.62221 0
67.65074 0
67.68407 0
67.71233 0
67.74329 0
67.77663 0
67.80492 0
67.83398 0
67.86732 0
67.89929 0
67.93262 0
67.9615 0
67.99483 0
68.02817 0
68.05646 0
68.08979 0
68.11958 0
68.14832 0
68.17885 0
68.2066 0
68.23993 0
68.26981 0
68.29826 0
68.32629 0
68.359 0
68.39233 0
68.42092 0
68.44766 0
68.47547 0
68.5084 0
68.54173 0
68.57507 0
68.60502 0
68.63432 0
68.66765 0
68.70083 0
68.73034 0
68.76367 0
68.79124 0
68.82043 0
68.85376 0
68.88515 0
68.91546 0
68.94607 0
68.97552 0
69.00885 0
69.03926 0
69.0696 0
69.09985 0
69.13318 0
69.16651 0
69.19518 0
69.22847 0
69.2604 0
69.28922 0
69.32255 0
69.35575 0
69.38604 0
69.41486 0
69.4482 0
69.48153 0
69.51116 0
69.53951 0
69.56853 0
69.59702 0
69.63036 0
69.65929 0
69.69262 0
69.72254 0
69.75587 0
69.78921 0
69.81724 0
69.84843 0
69.88142 0
69.91258 0
69.94592 0
69.9759 0
70.00447 0
70.0378 0
70.07052 0
70.10385 0
70.13348 0
70.16374 0
70.19439 0
70.22427 0
70.25761 0
70.28512 0
70.3129 0
70.34572 0
70.37409 0
70.40743 0
70.43579 0
70.46842 0
70.49776 0
70.5311 0
70.56444 0
70.59474 0
70.62727 0
70.65607 0
70.68676 0
70.72009 0
70.75093 0
70.78245 0
70.81445 0
70.84367 0
70.87701 0
70.90639 0
70.93349 0
70.9655 0
70.99428 0
71.02761 0
71.05931 0
71.09264 0
71.1221 0
71.15543 0
71.18877 0
71.2181 0
71.25143 0
71.28373 0
71.31133 0
71.34466 0
71.37727 0
71.40834 0
71.43581 0
71.46572 0
71.49905 0
71.52811 0
71.55473 0
71.58423 0
71.61756 0
71.6509 0
71.68082 0
71.71058 0
71.73916 0
71.76852 0
71.80185 0
71.83193 0
71.8624 0
71.89262 0
71.92499 0
71.95832 0
71.98733 0
72.01781 0
72.05115 0
72.08448 0
72.11781 0
72.14863 0
72.17588 0
72.20621 0
72.23955 0
72.27288 0
72.30582 0
72.3377 0
72.3682 0
72.39636 0
72.4297 0
72.45983 0
72.49306 0
72.52067 0
72.55138 0
72.58472 0
72.61539 0
72.64825 0
72.67667 0
72.707 0
72.74033 0
72.76878 0
72.79977 0
72.82992 0
72.86326 0
72.89659 0
72.92442 0
72.95683 0
72.99016 0
73.01837 0
73.0517 0
73.08077 0
73.11147 0
73.14014 0
73.17039 0
73.20373 0
73.23388 0
73.26656 0
73.2944 0
73.32386 0
73.35719 0
73.38911 0
73.41639 0
73.44481 0
73.47323 0
73.50656 0
73.53339 0
73.56171 0
73.59228 0
73.62562 0
73.65895 0
73.68858 0
73.71721 0
73.74768 0
73.78101 0
73.81435 0
73.84768 0
73.87605 0
73.90425 0
73.93305 0
73.96638 0
73.99943 0
74.02817 0
74.05944 0
74.08856 0
74.12189 0
74.14877 0
74.17699 0
74.2049 0
74.23763 0
74.27097 0
74.3043 0
74.33205 0
74.36108 0
74.38849 0
74.42182 0
74.45254 0
74.48108 0
74.508 0
74.53928 0
74.57261 0
74.60362 0
74.63195 0
74.66199 0
74.69208 0
74.72541 0
74.75666 0
74.78999 0
74.82029 0
74.84993 0
74.88178 0
74.91003 0
74.94337 0
74.97343 0
75.00375 0
75.03709 0
75.06564 0
75.09375 0
75.12083 0
75.15109 0
75.18443 0
75.21777 0
75.24899 0
75.2781 0
75.30614 0
75.33948 0
75.36691 0
75.39556 0
75.42362 0
75.45121 0
75.47861 0
75.51194 0
75.5407 0
75.56916 0
75.59669 0
75.62772 0
75.66106 0
75.69411 0
75.72134 0
75.75369 0
75.78703 0
75.82036 0
75.85036 0
75.8837 0
75.91533 0
75.94303 0
75.97636 0
76.00616 0
76.03749 0
76.06806 0
76.09489 0
76.12823 0
76.15633 0
76.18886 0
76.21606 0
76.24445 0
76.27779 0
76.3079 0
76.33456 0
76.36338 0
76.39207 0
76.4254 0
76.45358 0
76.48291 0
76.51094 0
76.53992 0
76.57326 0
76.60244 0
76.63209 0
76.65992 0
76.69242 0
76.72575 0
76.7557 0
76.78386 0
76.81399 0
76.84286 0
76.87619 0
76.90615 0
76.9341 0
76.96345 0
76.99586 0
77.02919 0
77.05564 0
77.0839 0
77.11237 0
77.1407 0
77.17403 0
77.20234 0
77.23077 0
77.26044 0
77.28745 0
77.32079 0
77.35014 0
77.38348 0
77.41666 0
77.44674 0
77.48007 0
77.50813 0
77.54028 0
77.5732 0
77.60252 0
77.63586 0
77.66216 0
77.69017 0
77.7235 0
77.75246 0
77.78579 0
77.814 0
77.84734 0
77.87543 0
77.90877 0
77.9421 0
77.97052 0
78.00024 0
78.02785 0
78.06118 0
78.09452 0
78.12278 0
78.15043 0
78.18376 0
78.2137 0
78.24703 0
78.27495 0
78.30457 0
78.33406 0
78.36393 0
78.39698 0
78.43031 0
78.45767 0
78.4892 0
78.51601 0
78.54934 0
78.5815 0
78.6104 0
78.63822 0
78.66987 0
78.7032 0
78.7359 0
78.76617 0
78.79891 0
78.82853 0
78.86186 0
78.88959 0
78.92027 0
78.94997 0
78.98013 0
79.01347 0
79.04321 0
79.07654 0
79.10721 0
79.13557 0
79.16891 0
79.20224 0
79.23096 0
79.25848 0
79.28826 0
79.32159 0
79.35374 0
79.38106 0
79.41328 0
79.44569 0
79.47902 0
79.51035 0
79.53957 0
79.57291 0
79.60091 0
79.63424 0
79.66451 0
79.6937 0
79.72206 0
79.75031 0
79.78364 0
79.81697 0
79.84702 0
79.87473 0
79.90381 0
79.93714 0
79.96949 0
80.00043 0
80.03377 0
80.06416 0
80.09749 0
80.12699 0
80.15562 0
80.18439 0
80.21218 0
80.24552 0
80.27373 0
80.30258 0
80.33549 0
80.36246 0
80.39579 0
80.42515 0
80.45247 0
80.48364 0
80.51457 0
80.5479 0
80.58024 0
80.60868 0
80.63855 0
80.66766 0
80.70099 0
80.73312 0
80.76309 0
80.79642 0
80.82609 0
80.85942 0
80.88846 0
80.92159 0
80.95492 0
80.98825 0
81.02158 0
81.05437 0
81.08518 0
81.11338 0
81.14671 0
81.18005 0
81.20968 0
81.2381 0
81.26993 0
81.2991 0
81.33243 0
81.36 0
81.39333 0
81.42667 0
81.4575 0
81.49083 0
81.51949 0
81.54925 0
81.57742 0
81.61076 0
81.64409 0
81.67544 0
81.70792 0
81.74101 0
81.77068 0
81.80402 0
81.8347 0
81.86249 0
81.89555 0
81.92806 0
81.9614 0
81.99371 0
82.02251 0
82.05152 0
82.08033 0
82.11366 0
82.14284 0
82.17165 0
82.20442 0
82.23244 0
82.26577 0
82.2991 0
82.32831 0
82.35531 0
82.38625 0
82.41959 0
82.44765 0
82.47466 0
82.50307 0
82.53273 0
82.56606 0
82.5928 0
82.62613 0
82.65507 0
82.68466 0
82.71799 0
82.74768 0
82.7763 0
82.80402 0
82.83216 0
82.86549 0
82.89636 0
82.92532 0
82.95386 0
82.98408 0
83.01741 0
83.04658 0
83.07372 0
83.1056 0
83.13464 0
83.16797 0
83.19569 0
83.22491 0
83.25388 0
83.28722 0
83.32045 0
83.35203 0
83.38125 0
83.41199 0
83.43867 0
83.47201 0
83.50316 0
83.53368 0
83.56204 0
83.59119 0
83.62452 0
83.65348 0
83.68492 0
83.71626 0
83.74491 0
83.77824 0
83.80602 0
83.83802 0
83.867 0
83.89615 0
83.92948 0
83.95943 0
83.98826 0
84.01598 0
84.04633 0
84.07966 0
84.11159 0
84.13958 0
84.16642 0
84.19975 0
84.23309 0
84.26071 0
84.28757 0
84.31623 0
84.34514 0
84.37457 0
84.40791 0
84.44124 0
84.46937 0
84.50237 0
84.52956 0
84.5629 0
84.59146 0
84.62187 0
84.65128 0
84.68343 0
84.71676 0
84.74927 0
84.77647 0
84.80502 0
84.83463 0
84.86796 0
84.89574 0
84.92467 0
84.95507 0
84.98405 0
85.01739 0
85.04725 0
85.07596 0
85.10488 0
85.13393 0
85.16727 0
85.19933 0
85.22782 0
85.25526 0
85.28799 0
85.32132 0
85.35236 0
85.38394 0
85.41316 0
85.44273 0
85.47606 0
85.50755 0
85.53688 0
85.56651 0
85.59555 0
85.62888 0
85.6603 0
85.69081 0
85.71922 0
85.74776 0
85.7811 0
85.81114 0
85.8405 0
85.86862 0
85.90029 0
85.93362 0
85.96163 0
85.98977 0
86.02271 0
86.05326 0
86.08659 0
86.11401 0
86.1431 0
86.17415 0
86.20748 0
86.24081 0
86.2737 0
86.30703 0
86.3396 0
86.36946 0
86.40279 0
86.43113 0
86.45937 0
86.49078 0
86.52097 0
86.5543 0
86.58387 0
86.61328 0
86.64274 0
86.67607 0
86.7094 0
86.73816 0
86.76837 0
86.79721 0
86.82558 0
86.85891 0
86.88721 0
86.92017 0
86.94806 0
86.9761 0
87.00943 0
87.04073 0
87.06881 0
87.09682 0
87.12671 0
87.16004 0
87.18822 0
87.21646 0
87.24979 0
87.28046 0
87.3138 0
87.34612 0
87.37488 0
87.40477 0
87.43465 0
87.46799 0
87.49722 0
87.52825 0
87.56158 0
87.59029 0
87.62363 0
87.65275 0
87.68042 0
87.71254 0
87.74537 0
87.77871 0
87.81192 0
87.8405 0
87.87084 0
87.90382 0
87.93715 0
87.97048 0
87.99891 0
88.03224 0
88.06361 0
88.09695 0
88.12872 0
88.16206 0
88.19192 0
88.22305 0
88.25638 0
88.28899 0
88.31933 0
88.34705 0
88.37577 0
88.4091 0
88.44244 0
88.46996 0
88.4996 0
88.53181 0
88.56514 0
88.59724 0
88.62864 0
88.65763 0
88.68819 0
88.72153 0
88.75475 0
88.78238 0
88.81571 0
88.84584 0
88.87917 0
88.91251 0
88.94185 0
88.96895 0
88.99825 0
89.03158 0
89.05928 0
89.08741 0
89.12074 0
89.15408 0
89.18741 0
89.21857 0
89.2504 0
89.27988 0
89.3088 0
89.34213 0
89.37088 0
89.40364 0
89.43132 0
89.46128 0
89.49461 0
89.52481 0
89.55366 0
89.5829 0
89.61623 0
89.64957 0
89.67693 0
89.70539 0
89.73563 0
89.76566 0
89.799 0
89.83233 0
89.86161 0
89.89174 0
89.91959 0
89.95293 0
89.98626 0
90.01472 0
90.04806 0
90.08109 0
90.11443 0
90.1431 0
90.17119 0
90.19964 0
90.22916 0
90.2625 0
90.29583 0
90.32368 0
90.35702 0
90.38661 0
90.41872 0
90.45206 0
90.48322 0
90.51655 0
90.5491 0
90.5788 0
90.61214 0
90.64533 0
90.67405 0
90.70179 0
90.73263 0
90.76596 0
90.79521 0
90.82185 0
90.85077 0
90.8792 0
90.91254 0
90.9454 0
90.97482 0
91.00432 0
91.03368 0
91.06187 0
91.09513 0
91.12847 0
91.15693 0
91.18459 0
91.21286 0
91.24268 0
91.27601 0
91.30934 0
91.33759 0
91.37027 0
91.39951 0
91.43285 0
91.46463 0
91.49796 0
91.52868 0
91.55713 0
91.59046 0
91.62065 0
91.65044 0
91.67813 0
91.70665 0
91.73998 0
91.76889 0
91.79588 0
91.82388 0
91.85567 0
91.88323 0
91.91656 0
91.94764 0
91.97769 0
92.01102 0
92.039 0
92.07233 0
92.10567 0
92.139 0
92.17233 0
92.20242 0
92.23576 0
92.26337 0
92.2915 0
92.3208 0
92.3509 0
92.37892 0
92.41225 0
92.44218 0
92.47552 0
92.50885 0
92.53618 0
92.56951 0
92.60039 0
92.63077 0
92.6641 0
92.6927 0
92.72604 0
92.75909 0
92.79047 0
92.82291 0
92.8532 0
92.88653 0
92.91788 0
92.94716 0
92.97629 0
93.00735 0
93.04069 0
93.07359 0
93.10303 0
93.13171 0
93.16035 0
93.19369 0
93.22702 0
93.255 0
93.28262 0
93.31596 0
93.34929 0
93.37775 0
93.40395 0
93.43562 0
93.46539 0
93.49872 0
93.52736 0
93.55623 0
93.58956 0
93.61792 0
93.65125 0
93.68439 0
93.7133 0
93.74165 0
93.77001 0
93.80334 0
93.83169 0
93.86502 0
93.89326 0
93.9266 0
93.95993 0
93.99072 0
94.0184 0
94.04771 0
94.07822 0
94.11155 0
94.13805 0
94.16591 0
94.19924 0
94.22732 0
94.26031 0
94.28915 0
94.31797 0
94.34603 0
94.37936 0
94.4127 0
94.4408 0
94.47037 0
94.49767 0
94.53005 0
94.56339 0
94.59438 0
94.62771 0
94.66104 0
94.68978 0
94.72311 0
94.75535 0
94.78502 0
94.81615 0
94.84487 0
94.8782 0
94.90707 0
94.93661 0
94.96878 0
94.99665 0
95.02998 0
95.0592 0
95.09253 0
95.12106 0
95.14985 0
95.18318 0
95.21651 0
95.24426 0
95.27347 0
95.30567 0
95.339 0
95.36688 0
95.40022 0
95.42875 0
95.45734 0
95.49017 0
95.51999 0
95.55332 0
95.58235 0
95.61426 0
95.64759 0
95.67751 0
95.70651 0
95.73579 0
95.7647 0
95.79803 0
95.83137 0
95.85996 0
95.8933 0
95.92599 0
95.95932 0
95.98669 0
96.01756 0
96.04952 0
96.08188 0.4
96.11521 0.85
96.14587 0.85
96.17579 1.7
96.20791 1.7
96.23717 2.6
96.2705 3.05
96.30383 3.05
96.33717 3.05
96.3705 3.25
96.39966 3.25
96.43299 3.25
96.46116 3.45
96.48973 3.45
96.52285 3.7
96.55618 3.9
96.58952 4.15
96.62244 4.15
96.65244 4.55
96.6825 4.55
96.71473 4.8
96.74806 5.2
96.77712 5.2
96.80521 5.65
96.83637 6.1
96.86504 6.1
96.89837 6.55
96.92908 6.75
96.95785 6.75
96.98625 6.75
97.01614 6.75
97.04947 6.75
97.0791 6.75
97.1059 6.75
97.13539 6.75
97.16872 6.75
97.20206 6.75
97.23195 6.75
97.26528 6.75
97.29552 6.75
97.32463 6.75
97.35796 6.75
97.3913 6.75
97.42054 6.75
97.44929 6.75
97.47636 6.75
97.5097 6.75
97.53866 6.75
97.5704 6.75
97.59789 6.75
97.62681 6.75
97.66014 6.75
97.68898 6.75
97.71577 6.75
97.74789 6.75
97.77689 6.75
97.81023 6.75
97.84244 6.75
97.87106 6.75
97.89909 6.75
97.93118 6.75
97.96381 6.75
97.99335 6.75
98.02669 6.75
98.05448 6.75
98.08311 6.75
98.11645 6.75
98.14978 6.75
98.18311 6.75
98.2096 6.75
98.24171 6.75
98.27504 6.75
98.30585 6.75
98.33265 6.75
98.36129 6.75
98.38985 6.75
98.42318 6.75
98.45134 6.75
98.48058 6.75
98.51241 6.75
98.54154 6.75
98.57488 6.75
98.60366 6.75
98.63346 6.75
98.66494 6.75
98.69344 6.75
98.72677 6.75
98.75813 6.75
98.79128 6.75
98.82461 6.75
98.8554 6.75
98.88873 6.75
98.92059 6.75
98.94912 6.75
98.97842 6.75
99.01176 6.75
99.04509 6.75
99.07265 6.75
99.10175 6.75
99.13029 6.75
99.16335 6.75
99.19636 6.75
99.22652 6.75
99.25616 6.75
99.28493 6.75
99.31796 6.75
99.35129 6.75
99.38151 6.75
99.41484 6.75
99.44419 6.75
99.47289 6.75
99.50623 6.75
99.53443 6.75
99.56214 6.75
99.59547 6.75
99.62832 6.75
99.66165 6.75
99.68924 6.75
99.7207 6.75
99.75177 6.75
99.78188 6.75
99.81522 6.75
99.84696 6.75
99.87815 6.75
99.91148 6.75
99.93951 6.75
99.97285 6.75
100.0022 6.75
100.0323 6.75
100.062 6.75
100.0917 6.95
100.125 6.95
100.1541 7.2
100.1853 7.4
100.2186 7.4
100.2477 7.6
100.2811 7.85
100.3092 7.85
100.3425 7.85
100.3737 7.85
100.4039 8.05
100.4372 8.05
100.4699 8.05
100.4982 8.3
100.5276 8.5
100.5548 8.5
100.5882 8.7
100.6191 8.7
100.6472 8.7
100.6742 8.95
100.7075 8.95
100.7409 8.95
100.7735 8.95
100.8036 8.95
100.8316 8.95
100.8613 8.95
100.8947 8.95
100.9235 8.95
100.9564 8.95
100.9886 8.95
101.0167 8.95
101.05 8.95
101.0794 8.95
101.1128 8.95
101.1411 8.95
101.1745 8.95
101.2078 8.95
101.2371 8.95
101.2691 8.95
101.3025 8.95
101.3341 8.95
101.3674 8.95
101.3979 8.95
101.4247 8.95
101.4539 8.95
101.4822 8.95
101.5112 8.95
101.5444 8.95
101.5772 8.95
101.6106 8.95
101.6437 8.95
101.6705 8.95
101.7038 8.95
101.7334 8.95
101.7625 8.95
101.7914 8.95
101.8207 8.95
101.854 8.95
101.8874 8.95
101.9157 8.95
101.9461 8.95
101.9752 8.95
102.0085 8.95
102.0383 8.95
102.0717 8.95
102.1023 8.95
102.1306 8.95
102.164 8.95
102.1973 8.95
102.2264 8.95
102.255 8.95
102.2827 8.95
102.3161 8.95
102.3439 8.95
102.3717 8.95
102.4035 8.95
102.4349 8.95
102.4682 8.95
102.5016 8.95
102.5302 8.95
102.5606 8.95
102.5891 8.95
102.6224 8.95
102.6558 8.95
102.6876 8.95
102.7194 8.95
102.7487 8.95
102.782 8.95
102.8129 8.95
102.8413 8.95
102.8739 8.95
102.9007 8.95
102.934 8.95
102.9644 8.95
102.9977 8.95
103.0285 8.95
103.0607 8.95
103.094 8.95
103.1256 8.95
103.1558 8.95
103.189 8.95
103.2191 8.95
103.2525 8.95
103.2821 8.95
103.312 8.95
103.3404 8.95
103.3698 8.95
103.4031 8.95
103.4364 8.95
103.4698 8.95
103.5017 8.95
103.5297 8.95
103.563 8.95
103.5932 8.95
103.6231 8.95
103.6499 8.95
103.6796 8.95
103.7129 8.95
103.7452 8.95
103.7726 8.95
103.8022 8.95
103.8317 8.7
103.865 8.7
103.8947 8.7
103.9238 8.7
103.9535 8.7
103.9812 8.7
104.0136 8.7
104.047 8.7
104.0803 8.7
104.1109 8.7
104.1386 8.7
104.1682 8.7
104.2015 8.7
104.2289 8.7
104.2605 8.95
104.2933 8.95
104.3266 8.95
104.3598 9.15
104.3895 9.15
104.4191 9.35
104.4524 9.6
104.4838 9.6
104.5171 9.8
104.5505 9.8
104.5796 9.8
104.6072 9.8
104.6391 9.8
104.6724 9.8
104.7058 9.8
104.7352 9.8
104.7636 9.8
104.7969 9.8
104.8302 9.8
104.8636 9.8
104.8916 9.8
104.9213 9.8
104.9506 9.8
104.984 9.8
105.0124 9.8
105.0435 9.8
105.0769 9.8
105.1102 9.8
105.1435 9.8
105.1739 9.8
105.2033 9.8
105.2347 9.8
105.2667 9.8
105.3001 9.8
105.3301 9.8
105.3603 9.8
105.3875 9.8
105.4194 9.8
105.4528 9.8
105.4801 9.8
105.5083 9.8
105.5417 9.8
105.5709 9.8
105.6042 9.8
105.6328 9.8
105.6626 9.8
105.6959 9.8
105.7254 9.8
105.7587 9.8
105.7876 9.8
105.8165 9.8
105.845 9.8
105.873 9.8
105.9039 9.8
105.9372 9.8
105.97 9.8
105.9978 9.8
106.0298 9.8
106.0619 9.8
106.0952 9.8
106.1254 9.8
106.1587 9.8
106.1871 9.8
106.2165 9.8
106.2499 9.8
106.2789 9.8
106.3085 9.8
106.3418 10
106.3707 10
106.404 10.45
106.4329 10.9
106.4617 10.9
106.4892 11.1
106.5186 11.1
106.552 11.35
106.5804 11.35
106.6096 11.35
106.6399 11.35
106.6715 11.35
106.7048 11.55
106.7316 11.55
106.7605 11.55
106.7938 11.75
106.8217 12.2
106.855 12.2
106.8883 12.45
106.9216 12.85
106.9505 12.85
106.9781 13.1
107.0114 13.1
107.0394 13.3
107.0685 13.5
107.1009 13.5
107.1343 13.5
107.1676 13.75
107.1991 13.75
107.2324 13.95
107.2656 14.15
107.2989 14.15
107.3322 14.4
107.3608 14.6
107.3895 14.6
107.4229 14.85
107.4516 15.05
107.4845 15.05
107.5157 15.25
107.5472 15.25
107.5755 15.5
107.6067 15.5
107.6401 15.5
107.6688 15.5
107.6985 15.5
107.7318 15.5
107.7603 15.5
107.7936 15.5
107.8211 15.5
107.8482 15.5
107.8815 15.5
107.9107 15.5
107.9441 15.5
107.9723 15.5
108.0047 15.5
108.0335 15.5
108.0616 15.7
108.0946 15.7
108.1279 15.7
108.161 15.9
108.1931 16.15
108.2256 16.15
108.2589 16.15
108.287 16.35
108.3181 16.35
108.3453 16.35
108.3764 16.35
108.4098 16.35
108.4383 16.35
108.4697 16.35
108.5011 16.35
108.5338 16.35
108.5671 16.35
108.5971 16.35
108.6269 16.35
108.656 16.35
108.685 16.35
108.7183 16.35
108.7475 16.35
108.7808 16.35
108.8142 16.35
108.8475 16.35
108.8808 16.6
108.9099 16.6
108.9401 16.6
108.9715 16.8
109.0006 16.8
109.034 17.25
109.0622 17.25
109.0893 17.9
109.1185 18.55
109.148 18.55
109.1787 19.4
109.212 19.4
109.2406 20.05
109.2688 20.75
109.2973 20.75
109.3304 21.8
109.3637 22.7
109.3971 22.7
109.4282 23.55
109.4615 24.45
109.4928 24.45
109.5261 24.9
109.5567 24.9
109.5853 25.1
109.6184 25.1
109.6468 25.1
109.6802 25.1
109.7079 25.1
109.7382 25.1
109.7677 25.3
109.7955 25.3
109.8289 25.55
109.8602 26.2
109.8936 26.2
109.9222 26.85
109.9516 27.5
109.985 27.5
110.0183 27.95
110.0508 28.15
110.0779 28.15
110.1076 28.35
110.1409 28.35
110.1721 28.35
110.2055 28.35
110.2388 28.35
110.2685 28.35
110.3018 28.35
110.3316 28.35
110.3649 28.35
110.3939 28.35
110.4227 28.6
110.456 28.6
110.4894 28.6
110.5181 28.6
110.5467 28.8
110.5751 29.05
110.6084 29.05
110.6386 29.05
110.6683 29.05
110.6974 29.05
110.7278 29.05
110.7612 29.05
110.7901 29.05
110.8182 29.05
110.8477 29.05
110.8774 29.05
110.9107 29.05
110.939 29.05
110.9724 29.05
111.0025 29.05
111.0337 29.05
111.067 29.05
111.0971 29.05
111.1255 29.05
111.1534 29.25
111.1816 29.25
111.2149 29.7
111.2482 30.1
111.2774 30.1
111.3073 30.55
111.3406 31
111.3721 31
111.4054 31.2
111.4388 31.85
111.468 31.85
111.4978 32.3
111.5254 32.3
111.5587 32.95
111.5905 33.4
111.6233 33.4
111.6555 34.05
111.6869 34.7
111.7202 34.7
111.7509 35.35
111.7823 36
111.8116 36
111.8417 36.45
111.875 36.45
111.9069 36.9
111.9402 37.35
111.9715 37.35
112.0016 37.75
112.035 38.4
112.0661 38.4
112.0947 38.65
112.1241 38.85
112.1537 38.85
112.187 38.85
112.2168 38.85
112.2501 38.85
112.2794 38.85
112.3068 38.85
112.3401 38.85
112.3692 38.85
112.3968 38.85
112.4252 39.1
112.4586 39.1
112.4919 39.3
112.5252 39.95
112.5575 40.4
112.5909 40.4
112.6209 40.6
112.6542 40.6
112.6874 40.6
112.7168 40.8
112.7456 40.8
112.7789 40.8
112.812 40.8
112.8415 40.8
112.8695 40.8
112.9026 40.8
112.9359 40.8
112.9693 40.8
112.9994 40.8
113.0278 40.8
113.0579 40.8
113.0897 40.8
113.123 40.8
113.1519 40.8
113.1801 40.8
113.2088 40.8
113.2415 40.8
113.2748 40.8
113.3054 40.8
113.3361 40.8
113.3657 40.8
113.395 40.8
113.4283 40.8
113.4593 40.8
113.4924 40.8
113.5258 40.8
113.5536 40.8
113.5869 40.8
113.6159 40.8
113.6435 40.8
113.6706 40.6
113.704 40.6
113.7373 40.15
113.7706 39.75
113.8004 39.75
113.8293 38.85
113.8577 38
113.891 38
113.9226 36.9
113.9519 36.9
113.9835 35.8
114.0168 34.95
114.0501 34.95
114.0835 34.25
114.1168 33.85
114.1474 33.85
114.1797 33.85
114.213 33.85
114.2447 33.85
114.2725 33.85
114.2997 33.85
114.3331 33.85
114.3664 33.4
114.3977 32.75
114.4254 32.75
114.4548 31.45
114.4882 30.1
114.5215 30.1
114.5541 29.05
114.5874 28.35
114.6164 28.35
114.6469 27.95
114.6803 27.95
114.709 27.95
114.7381 27.95
114.7681 27.95
114.8015 27.95
114.8348 27.95
114.8681 27.95
114.9015 27.95
114.9325 27.5
114.9628 27.5
114.9961 27.05
115.0249 26.2
115.0534 26.2
115.0867 25.75
115.1184 25.1
115.1517 25.1
115.1834 25.1
115.2155 25.1
115.2442 25.1
115.2742 25.1
115.3075 25.1
115.3378 25.1
115.3665 25.3
115.3965 25.3
115.4263 25.55
115.4596 25.75
115.4929 25.75
115.5204 26.2
115.5516 26.85
115.5808 26.85
115.6141 27.5
115.6431 27.95
115.6753 27.95
115.7083 28.35
115.7397 28.35
115.773 28.8
115.8036 29.25
115.8361 29.45
115.8658 29.45
115.8955 29.7
115.9288 29.7
115.9577 29.9
115.986 29.9
116.016 29.9
116.0446 30.1
116.0756 30.1
116.1089 30.1
116.1367 30.1
116.1637 30.1
116.1945 30.1
116.2273 30.1
116.2606 30.1
116.2918 30.1
116.3249 30.1
116.3531 30.1
116.3812 30.1
116.4145 30.1
116.4479 30.1
116.4764 30.1
116.5043 30.1
116.5377 30.1
116.571 29.9
116.6003 29.9
116.6299 29.45
116.6577 29.45
116.6911 29.05
116.7244 28.6
116.7577 28.6
116.7861 28.35
116.8195 28.15
116.8528 28.15
116.8861 28.15
116.9186 28.15
116.9471 28.15
116.9804 28.15
117.0101 28.15
117.0435 28.15
117.0768 28.15
117.1065 28.15
117.1399 28.15
117.1679 28.15
117.2012 27.95
117.2337 27.95
117.2639 27.5
117.2947 27.5
117.3244 26.65
117.3578 25.55
117.3872 25.55
117.4154 24.65
117.4438 23.8
117.474 23.8
117.5073 23.35
117.5344 23.15
117.5638 23.15
117.5937 22.9
117.627 22.9
117.6603 22.7
117.6891 22.5
117.717 22.5
117.7495 22.05
117.7795 22.05
117.8128 21.4
117.8452 20.5
117.8786 19.65
117.9093 19.65
117.9394 18.55
117.9727 16.6
117.9997 16.6
118.0276 15.05
118.057 15.05
118.0866 13.1
118.1199 11.1
118.1511 11.1
118.1796 9.6
118.2129 9.6
118.2453 8.05
118.2787 6.95
118.312 5.65
118.3453 5.65
118.3787 4.8
118.4062 3.7
118.4395 3.7
118.4729 3.05
118.501 2.15
118.5316 2.15
118.5637 1.5
118.597 0.65
118.6302 0.65
118.6621 -0.2
118.691 -0.2
118.7195 -1.05
118.7529 -1.7
118.7823 -1.7
118.8157 -2.4
118.8454 -2.8
118.8784 -2.8
118.9118 -3.25
118.9412 -3.7
118.9745 -3.7
119.0075 -3.9
119.0362 -4.55
119.0695 -4.55
119.1028 -5.2
119.1308 -5.85
119.1641 -5.85
119.1957 -6.55
119.229 -6.75
119.2583 -6.75
119.2878 -6.75
119.3199 -6.75
119.3533 -6.75
119.3866 -6.75
119.4153 -6.75
119.444 -6.75
119.4735 -6.75
119.5027 -6.75
119.5361 -6.75
119.5684 -6.75
119.5998 -6.75
119.6294 -6.75
119.661 -6.75
119.6943 -6.75
119.7245 -6.55
119.7543 -6.55
119.7876 -6.55
119.8183 -6.55
119.8516 -6.55
119.885 -6.55
119.9127 -6.3
119.9427 -6.3
119.9725 -6.3
120.0058 -6.3
120.0392 -6.3
120.0687 -6.3
120.0998 -5.85
120.1278 -5.85
120.1611 -5.65
120.191 -5.65
120.2213 -5
120.2499 -4.8
120.2819 -4.8
120.3152 -3.7
120.3453 -2.8
120.3749 -2.8
120.4057 -2.15
120.4358 -2.15
120.4691 -1.5
120.5025 -1.3
120.5303 -1.3
120.5614 -1.3
120.5903 -1.3
120.6236 -1.3
120.6532 -1.3
120.6826 -0.85
120.712 -0.85
120.7407 -0.65
120.774 -0.65
120.8073 -0.2
120.8407 -0.2
120.8694 -0.2
120.9 -0.2
120.9333 -0.2
120.9656 -0.2
120.9944 -0.2
121.0261 0.4
121.0594 0.4
121.0928 0.65
121.1253 1.05
121.154 1.05
121.1831 1.7
121.2162 2.15
121.2495 2.15
121.2759 2.4
121.3062 2.4
121.3396 2.6
121.3729 2.6
121.4062 2.6
121.4362 2.6
121.4661 2.6
121.4943 2.6
121.5262 2.8
121.5595 3.25
121.5902 3.25
121.6187 3.45
121.6463 3.45
121.6761 4.15
121.7094 4.35
121.7428 4.55
121.7726 4.55
121.8055 4.55
121.8376 4.55
121.8706 4.55
121.8978 4.55
121.9289 4.55
121.9623 4.35
121.9923 4.15
122.0245 4.15
122.0538 3.7
122.0857 3.7
122.1163 3.45
122.1487 3.25
122.182 3.25
122.2154 2.8
122.244 2.4
122.2725 2.4
122.3042 1.95
122.3375 1.5
122.3708 1.5
122.4042 1.3
122.4333 1.05
122.4667 1.05
122.5 0.85
122.5278 0.4
122.5578 0.4
122.5911 0.2
122.621 -0.4
122.6544 -0.4
122.6877 -1.05
122.7194 -1.7
122.7474 -1.7
122.7808 -2.15
122.8141 -2.15
122.8432 -2.15
122.8728 -2.15
122.8999 -2.15
122.9323 -2.15
122.9656 -2.15
122.9939 -2.15
123.0207 -2.15
123.0534 -2.15
123.084 -2.15
123.1173 -2.15
123.1444 -2.15
123.1743 -2.15
123.2042 -2.15
123.2328 -2.15
123.2661 -2.4
123.2995 -2.6
123.3294 -2.6
123.3569 -3.05
123.3839 -3.05
123.4172 -3.05
123.4478 -3.05
123.4767 -3.05
123.5069 -3.05
123.5375 -3.05
123.5708 -3.05
123.6041 -3.05
123.6336 -3.05
123.6646 -3.05
123.6949 -3.05
123.7282 -3.05
123.7554 -3.05
123.7873 -3.05
123.8174 -3.05
123.8475 -3.25
123.8808 -3.45
123.9105 -3.45
123.9428 -3.9
123.9714 -3.9
124.0047 -4.35
124.0381 -4.55
124.0701 -4.55
124.0979 -4.55
124.1303 -4.55
124.1605 -4.55
124.1938 -4.55
124.224 -4.55
124.2511 -4.55
124.2805 -4.55
124.31 -4.55
124.3433 -4.55
124.3721 -4.55
124.4019 -4.55
124.4352 -4.55
124.4643 -4.55
124.4976 -4.55
124.5283 -4.55
124.5597 -4.55
124.593 -4.55
124.6208 -4.55
124.6541 -4.55
124.6865 -4.55
124.714 -4.55
124.7436 -4.55
124.7756 -4.55
124.809 -4.55
124.8419 -4.55
124.8731 -4.55
124.9038 -4.55
124.9328 -4.55
124.9661 -4.55
124.9942 -4.8
125.0221 -4.8
125.055 -5
125.0848 -5.2
125.1182 -5.2
125.1505 -5.45
125.1811 -5.45
125.2145 -5.45
125.2437 -5.65
125.2771 -5.65
125.3089 -5.65
125.3401 -5.65
125.3734 -5.65
125.4034 -5.65
125.4368 -5.45
125.4683 -5.45
125.5016 -5.2
125.5325 -4.8
125.5646 -4.8
125.598 -4.8
125.6293 -4.8
125.6584 -4.8
125.6907 -4.8
125.7207 -4.8
125.754 -4.8
125.7842 -4.8
125.8123 -4.8
125.8408 -4.8
125.8682 -4.8
125.9015 -4.8
125.9312 -4.8
125.9631 -4.8
125.9908 -4.8
126.0193 -4.8
126.0527 -4.55
126.0828 -4.55
126.1119 -4.35
126.1439 -4.35
126.1773 -4.15
126.2106 -4.15
126.2439 -3.9
126.2773 -3.9
126.3067 -3.7
126.3369 -3.7
126.3699 -3.7
126.3989 -3.7
126.4288 -3.7
126.4611 -3.7
126.4894 -3.7
126.5228 -3.45
126.5523 -3.25
126.5837 -2.8
126.6136 -2.8
126.6448 -2.15
126.6782 -1.7
126.7094 -1.7
126.7398 -1.5
126.7731 -1.5
126.8016 -1.3
126.8349 -1.3
126.8621 -1.3
126.8944 -1.3
126.9239 -1.3
126.9572 -1.3
126.9906 -1.3
127.0194 -1.3
127.0528 -1.3
127.0842 -1.3
127.112 -1.3
127.1454 -1.3
127.1756 -1.3
127.2087 -1.3
127.2355 -1.3
127.265 -1.3
127.2983 -1.3
127.329 -1.3
127.3579 -1.3
127.3877 -1.3
127.4172 -1.3
127.4506 -1.3
127.4769 -1.3
127.5076 -1.3
127.5409 -1.3
127.5691 -1.3
127.6025 -1.3
127.6329 -1.3
127.6662 -1.3
127.6974 -1.3
127.7259 -1.3
127.7593 -1.3
127.7883 -1.3
127.8183 -1.3
127.846 -1.3
127.8749 -1.5
127.9082 -1.7
127.9399 -1.7
127.9677 -1.95
127.9969 -2.4
128.0261 -2.4
128.0594 -2.6
128.0864 -2.6
128.1165 -2.6
128.1489 -2.8
128.177 -2.8
128.2102 -2.8
128.2436 -2.8
128.2746 -2.8
128.3079 -2.8
128.3379 -2.8
128.3712 -2.8
128.4009 -2.8
128.4316 -2.8
128.4594 -2.8
128.4927 -2.8
128.526 -2.8
128.5572 -2.8
128.5905 -2.8
128.6199 -2.8
128.6508 -2.8
128.6841 -2.8
128.7155 -2.8
128.7458 -3.05
128.7764 -3.05
128.8052 -3.05
128.8386 -3.05
128.867 -3.05
128.8966 -3.05
128.93 -3.05
128.9574 -3.05
128.9907 -3.05
129.024 -3.05
129.0562 -3.05
129.083 -3.05
129.1163 -3.05
129.1497 -3.05
129.183 -3.05
129.2112 -3.05
129.2422 -3.05
129.2755 -3.05
129.3088 -3.05
129.3368 -3.05
129.3684 -3.05
129.3989 -3.05
129.4282 -3.05
129.4615 -3.05
129.4949 -3.05
129.5232 -3.05
129.5555 -3.05
129.5826 -3.05
129.6159 -3.05
129.6479 -3.05
129.6752 -3.05
129.7027 -3.05
129.7323 -3.05
129.7656 -3.05
129.7969 -3.05
129.8255 -3.05
129.8556 -3.05
129.8851 -3.05
129.9184 -3.05
129.949 -3.05
129.9791 -3.05
130.0125 -3.05
130.04 -3.05
130.0733 -3.05
130.1046 -3.05
130.1354 -3.05
130.1649 -3.05
130.1981 -3.05
130.2314 -3.05
130.2622 -3.05
130.294 -3.05
130.3217 -2.8
130.3521 -2.8
130.3854 -2.4
130.4151 -2.15
130.4422 -2.15
130.4738 -1.95
130.5032 -1.95
130.5365 -1.7
130.5681 -1.7
130.5977 -1.7
130.6278 -1.7
130.6585 -1.7
130.6919 -1.7
130.7222 -1.7
130.7514 -1.7
130.7821 -1.7
130.8154 -1.7
130.8488 -1.7
130.8821 -1.7
130.9105 -1.7
130.9404 -1.7
130.9711 -1.7
131.0045 -1.7
131.0324 -1.7
131.0614 -1.5
131.0919 -1.5
131.1245 -1.5
131.1579 -1.5
131.1864 -1.5
131.2178 -1.5
131.2512 -1.5
131.2791 -1.5
131.3125 -1.3
131.3458 -1.05
131.3788 -1.05
131.4079 -0.85
131.4355 -0.65
131.4689 -0.65
131.5022 -0.4
131.5316 -0.4
131.5586 -0.4
131.5919 -0.2
131.6253 -0.2
131.6533 -0.2
131.6818 -0.2
131.7109 -0.2
131.7442 -0.2
131.7775 -0.2
131.8086 -0.2
131.8378 -0.2
131.867 -0.2
131.897 -0.2
131.9303 -0.2
131.9637 -0.2
131.9935 -0.2
132.026 -0.2
132.054 -0.2
132.0873 -0.2
132.1183 -0.2
132.1463 -0.2
132.1744 -0.2
132.2076 -0.2
132.2409 -0.2
132.2678 -0.2
132.2957 -0.2
132.3273 -0.2
132.3607 -0.2
132.394 -0.2
132.4273 -0.2
132.4586 -0.2
132.4884 -0.2
132.5166 -0.2
132.5499 -0.2
132.5801 -0.2
132.6131 -0.2
132.642 -0.2
132.6689 0.4
132.7022 0.4
132.7353 0.4
132.7636 0.4
132.7962 0.4
132.8295 0.4
132.8629 0.4
132.8921 0
132.9197 0
132.9496 -0.2
132.9804 -0.2
133.0137 -0.2
133.0405 -0.2
133.0711 -0.2
133.101 -0.2
133.1328 -0.2
133.1661 -0.2
133.1951 -0.2
133.2284 -0.2
133.2583 -0.2
133.2882 0
133.3215 0
133.3549 0.2
133.3841 0.65
133.4129 0.65
133.4458 0.85
133.4791 1.05
133.5079 1.05
133.5412 1.05
133.5705 1.05
133.6007 1.05
133.634 1.05
133.665 1.05
133.6949 1.05
133.7227 1.05
133.7516 1.05
133.7849 1.05
133.8134 1.05
133.8417 1.05
133.869 1.5
133.9024 1.5
133.9357 1.95
133.9672 2.4
133.9956 2.4
134.0235 2.8
134.0547 2.8
134.0881 2.8
134.1163 2.8
134.144 2.8
134.1774 2.8
134.2063 2.8
134.2397 2.8
134.2679 2.8
134.2973 2.8
134.3306 3.25
134.3614 3.25
134.3948 3.45
134.4281 3.45
134.4607 3.45
134.4891 3.45
134.5188 3.45
134.5521 3.45
134.5812 3.45
134.6089 3.25
134.6377 3.25
134.671 3.05
134.7044 2.8
134.7325 2.8
134.762 2.6
134.7913 2.4
134.8222 2.4
134.8555 2.15
134.8888 2.15
134.9182 2.15
134.9511 2.15
134.9844 2.15
135.0177 2.4
135.048 2.4
135.0796 2.4
135.1129 2.4
135.1401 2.4
135.1734 2.4
135.2027 2.4
135.2311 2.4
135.2581 2.4
135.2873 2.15
135.3176 2.15
135.3509 2.15
135.3832 1.95
135.4165 1.7
135.4462 1.7
135.4752 1.3
135.5085 0.85
135.5419 0.85
135.5752 0.65
135.6041 0.4
135.6317 0.4
135.665 0.4
135.6956 0.4
135.7271 0.4
135.7549 0.4
135.7876 0.4
135.8209 0.4
135.8494 0.4
135.8775 0.4
135.9108 0.2
135.9438 -0.2
135.9771 -0.2
136.0041 -0.65
136.0336 -0.65
136.0621 -0.65
136.0954 -0.65
136.1288 -0.65
136.1612 -0.65
136.1919 -0.65
136.223 -0.65
136.2527 -0.65
136.286 -0.65
136.3145 -0.65
136.3438 -0.65
136.3708 -0.65
136.4006 -0.65
136.4302 -0.65
136.4635 -0.65
136.4969 -0.65
136.5289 -0.65
136.5622 -0.65
136.5909 -0.65
136.6242 -0.65
136.6571 -0.65
136.6864 -0.65
136.7198 -0.65
136.7475 -0.65
136.7809 -0.65
136.8101 -0.65
136.8394 -0.65
136.8682 -0.65
136.9011 -0.65
136.9344 -0.65
136.9629 -0.65
136.9892 -0.65
137.0226 -0.65
137.0559 -0.65
137.0892 -0.65
137.1217 -0.85
137.1508 -0.85
137.1803 -0.85
137.2111 -0.85
137.2445 -0.85
137.2778 -1.05
137.3069 -1.05
137.3353 -1.05
137.3686 -1.05
137.4019 -1.05
137.4329 -1.05
137.4622 -1.05
137.4955 -0.85
137.5263 -0.85
137.5596 -0.4
137.5926 0.4
137.6249 0.4
137.656 1.5
137.6885 1.5
137.7219 2.6
137.7488 3.45
137.7775 3.45
137.8074 4.35
137.8359 5
137.8684 5
137.9002 5.45
137.9306 5.45
137.9584 5.45
137.9907 5.45
138.024 5.45
138.0533 5.65
138.0839 5.65
138.1172 5.65
138.1473 6.1
138.1806 6.3
138.2084 6.3
138.2379 6.55
138.2676 6.55
138.2985 6.55
138.3319 6.55
138.3652 6.55
138.3933 6.55
138.4249 6.55
138.4567 6.55
138.4893 6.55
138.5226 6.75
138.5514 6.95
138.579 6.95
138.6068 7.2
138.6402 7.6
138.67 7.6
138.6992 7.6
138.7276 7.6
138.7569 8.05
138.7903 8.3
138.8189 8.3
138.8485 8.7
138.877 8.7
138.9068 8.7
138.9401 8.95
138.9689 8.95
139.0011 8.95
139.0317 8.95
139.0627 8.95
139.096 8.95
139.1254 8.95
139.1572 8.7
139.1874 8.5
139.2157 8.5
139.249 8.3
139.2796 8.05
139.3084 8.05
139.3362 7.6
139.3695 7.6
139.4028 6.95
139.4317 6.75
139.4603 6.75
139.4893 6.3
139.5183 6.3
139.5516 6.1
139.5822 5.85
139.6143 5.85
139.6442 5.65
139.676 5.45
139.7093 5.45
139.7422 5.2
139.771 4.8
139.8001 4.8
139.8295 4.35
139.8629 4.35
139.8962 4.35
139.9251 4.15
139.9531 4.15
139.9836 3.9
140.017 3.7
140.0444 3.7
140.0746 3.25
140.1039 3.25
140.136 2.8
140.1693 2.4
140.199 2.4
140.2291 2.15
140.2603 1.95
140.2884 1.95
140.3217 1.95
140.351 1.95
140.3843 1.95
140.414 1.95
140.4411 1.95
140.4744 1.95
140.5043 1.95
140.5319 1.95
140.5598 1.95
140.5894 1.7
140.6227 1.7
140.6517 1.3
140.6788 1.05
140.7082 1.05
140.7392 0.85
140.7725 0.85
140.8006 0.65
140.834 0.65
140.8631 0.65
140.8919 0.65
140.9252 0.65
140.9546 0.65
140.9848 0.65
141.0133 0.65
141.0462 0.65
141.0795 0.65
141.1129 0.65
141.1422 0.65
141.1741 0.65
141.2042 0.65
141.2375 0.4
141.2696 0.4
141.2964 0.4
141.3277 0.2
141.357 0.2
141.3904 0.2
141.4185 0
141.4471 0
141.4764 0
141.5097 0
141.5417 0
141.5751 0
141.6084 0
141.6365 0
141.6698 0
141.7031 0
141.7325 0
141.7647 0
141.7927 0.2
141.8223 0.2
141.8557 0.2
141.8853 0.2
141.9137 0.4
141.9471 0.4
141.9777 0.4
142.011 0.65
142.0382 0.65
142.0715 0.65
142.1003 0.85
142.1302 0.85
142.1635 1.05
142.1968 1.3
142.2302 1.5
142.2586 1.5
142.2859 1.7
142.3192 1.7
142.35 1.95
142.3786 1.95
142.4061 1.95
142.4353 1.95
142.4686 1.95
142.4972 1.95
142.53 1.95
142.5603 1.95
142.5901 1.95
142.6234 1.95
142.6535 1.95
142.6868 1.95
142.7164 1.95
142.7451 1.7
142.7784 1.7
142.8117 1.7
142.8451 1.5
142.8746 1.5
142.9056 1.5
142.9389 1.5
142.9695 1.5
142.9972 1.5
143.0256 1.5
143.0589 1.5
143.0923 1.5
143.1206 1.5
143.1478 1.5
143.1775 1.5
143.2068 1.3
143.2402 1.3
143.2692 0.85
143.3024 0.4
143.3351 0.4
143.3631 0.2
143.3964 0
143.4298 0
143.4592 -0.2
143.4918 -0.2
143.5247 -0.2
143.5581 -0.2
143.5895 -0.4
143.6227 -0.4
143.6509 -0.65
143.6842 -0.65
143.7175 -0.85
143.7509 -0.85
143.7822 -0.85
143.815 -0.85
143.8457 -0.85
143.879 -0.85
143.9091 -0.85
143.9396 -0.85
143.9729 -0.85
144.0045 -0.85
144.0369 -0.85
144.0702 -0.85
144.1002 -0.85
144.1312 -0.85
144.1636 -0.85
144.1969 -0.85
144.2302 -0.85
144.2619 -0.85
144.2909 -0.65
144.3209 -0.4
144.3542 -0.4
144.3875 0
144.4169 0.4
144.4502 0.4
144.4823 0.65
144.5156 0.85
144.5431 0.85
144.576 0.85
144.6085 0.85
144.6367 0.85
144.67 0.85
144.6991 0.85
144.7282 0.85
144.7562 0.85
144.7833 0.85
144.8166 0.85
144.8499 0.85
144.8782 0.85
144.9078 0.85
144.9404 0.85
144.9722 0.85
145.0055 0.85
145.0366 0.85
145.0666 0.85
145.0965 0.85
145.1284 0.85
145.1616 0.85
145.1918 0.85
145.2203 0.85
145.2498 0.85
145.2775 0.85
145.3063 0.85
145.3396 0.85
145.3701 0.85
145.4007 0.85
145.4307 0.85
145.464 0.85
145.4974 0.85
145.5307 0.85
145.5631 0.85
145.593 1.05
145.6225 1.05
145.6558 1.3
145.6856 1.95
145.7143 1.95
145.7477 2.4
145.7753 2.4
145.8086 3.05
145.8374 3.25
145.8662 3.25
145.897 3.25
145.9278 3.25
145.9611 3.25
145.9909 3.25
146.0204 3.25
146.0537 3.25
146.0843 3.25
146.1177 3.25
146.1451 3.25
146.1783 3.25
146.2088 3.25
146.2371 3.25
146.2697 3.25
146.2986 3.25
146.332 3.25
146.3596 3.25
146.3911 3.25
146.4244 3.25
146.4527 3.25
146.4805 3.25
146.5081 3.25
146.5408 3.25
146.5742 3.25
146.604 3.25
146.635 3.25
146.6635 3.25
146.6929 3.25
146.7262 3.25
146.7596 3.05
146.7877 3.05
146.818 2.8
146.8472 2.4
146.8805 2.4
146.9138 1.95
146.9469 1.7
146.9767 1.7
147.0066 1.5
147.0399 1.5
147.0693 1.5
147.0975 1.5
147.1308 1.5
147.16 1.5
147.1934 1.5
147.2209 1.5
147.2533 1.5
147.283 1.5
147.3143 1.5
147.3476 1.5
147.3765 1.3
147.405 1.3
147.4375 1.05
147.4667 1.05
147.5001 0.85
147.5334 0.65
147.5654 0.65
147.5968 0.65
147.6268 0.4
147.6601 0.4
147.6934 0.4
147.7229 0.4
147.7556 0.4
147.7845 0.4
147.8178 0.4
147.8511 0.4
147.8817 0
147.9107 -0.2
147.9434 -0.2
147.9768 -0.4
148.0082 -0.4
148.0405 -0.4
148.0701 -0.4
148.0994 -0.4
148.1327 -0.4
148.1625 -0.4
148.1916 -0.4
148.2195 -0.4
148.2506 -0.4
148.2839 -0.4
148.3172 -0.4
148.3454 -0.4
148.372 -0.4
148.4016 -0.65
148.435 -0.85
148.4633 -0.85
148.4937 -0.85
148.527 -0.85
148.558 -0.85
148.5913 -0.85
148.6189 -0.85
148.6505 -0.85
148.6827 -0.85
148.7128 -0.85
148.7461 -0.85
148.7753 -0.85
148.807 -0.85
148.8356 -0.85
148.8642 -0.85
148.8975 -0.85
148.9268 -0.85
148.9584 -0.85
148.9907 -0.85
149.021 -0.85
149.0543 -0.85
149.0845 -0.85
149.1166 -0.85
149.1457 -0.85
149.1776 -0.85
149.2109 -0.85
149.2426 -0.85
149.2712 -0.85
149.3045 -0.85
149.3347 -0.85
149.368 -0.85
149.4003 -0.85
149.4298 -0.85
149.4601 -0.85
149.4876 -0.85
149.5209 -0.85
149.5496 -0.85
149.5775 -0.85
149.6057 -0.85
149.6386 -0.85
149.6719 -0.85
149.7052 -0.85
149.7364 -0.85
149.7657 -0.85
149.7946 -0.85
149.828 -0.85
149.857 -0.85
149.8869 -0.85
149.9176 -0.85
149.9456 -0.85
149.979 -0.85
150.0104 -0.85
150.0388 -0.85
150.0667 -0.85
150.0959 -0.85
150.1293 -0.85
150.1612 -0.85
150.1887 -0.85
150.2158 -0.85
150.2468 -0.85
150.2801 -0.85
150.3115 -0.85
150.3397 -0.85
150.3694 -1.05
150.3991 -1.05
150.4325 -1.3
150.4606 -1.5
150.4899 -1.5
150.5233 -2.15
150.5526 -2.6
150.586 -2.6
150.6165 -2.8
150.6459 -3.05
150.6732 -3.05
150.701 -3.05
150.7344 -3.05
150.7629 -3.05
150.7958 -3.05
150.8229 -3.05
150.8562 -3.05
150.8895 -3.05
150.9229 -3.05
150.9503 -3.05
150.9794 -3.05
151.0123 -3.05
151.0456 -3.05
151.076 -3.05
151.1049 -3.05
151.1383 -3.05
151.1716 -3.05
151.2049 -3.05
151.2383 -3.05
151.267 -3.05
151.3003 -3.05
151.3336 -3.05
151.367 -3.05
151.3989 -3.05
151.4279 -3.05
151.4563 -3.05
151.4858 -3.05
151.5191 -3.05
151.5484 -3.05
151.576 -3.05
151.6047 -3.05
151.638 -3.05
151.6714 -3.05
151.7037 -3.05
151.7359 -3.05
151.7643 -2.8
151.7929 -2.8
151.8262 -2.6
151.8569 -2.4
151.8878 -2.4
151.9181 -2.4
151.948 -2.4
151.9813 -2.4
152.0147 -2.4
152.0433 -2.4
152.0706 -2.4
152.1012 -2.4
152.1345 -2.4
152.1616 -2.4
152.191 -2.4
152.2194 -2.4
152.2488 -2.4
152.2813 -2.4
152.3141 -2.4
152.3444 -2.4
152.3766 -2.4
152.4053 -2.4
152.4373 -2.4
152.4706 -2.4
152.5039 -2.4
152.5334 -2.4
152.5615 -2.4
152.5928 -2.4
152.6261 -2.4
152.6595 -2.4
152.692 -2.4
152.7248 -2.4
152.7548 -2.4
152.7882 -2.4
152.8215 -2.4
152.8518 -2.4
152.8835 -2.4
152.9132 -2.4
152.9465 -2.4
152.9762 -2.4
153.0072 -2.4
153.0406 -2.4
153.0682 -2.4
153.1015 -2.4
153.1327 -2.4
153.1643 -2.4
153.1919 -2.4
153.223 -2.4
153.2564 -2.4
153.2897 -2.4
153.3206 -2.4
153.3488 -2.4
153.3798 -2.4
153.4131 -2.4
153.445 -2.4
153.4779 -2.4
153.5102 -2.4
153.5435 -2.4
153.5768 -2.4
153.6102 -2.4
153.6422 -2.4
153.6712 -2.4
153.7021 -2.4
153.7354 -2.4
153.7687 -2.4
153.7962 -2.4
153.8267 -2.4
153.8594 -2.4
153.8927 -2.4
153.9215 -2.4
153.9539 -2.4
153.9873 -2.4
154.0204 -2.4
154.0537 -2.4
154.0847 -2.4
154.1153 -2.4
154.1486 -2.4
154.1772 -2.4
154.2106 -2.4
154.2401 -2.4
154.2734 -2.4
154.3029 -2.4
154.3323 -2.4
154.3657 -2.4
154.3953 -2.4
154.4274 -2.4
154.4563 -2.4
154.4848 -2.4
154.5182 -2.4
154.547 -2.4
154.5803 -2.4
154.6103 -2.4
154.6436 -2.4
154.6769 -2.4
154.7059 -2.4
154.735 -2.4
154.7648 -2.4
154.798 -2.4
154.8314 -2.4
154.861 -2.4
154.8928 -2.4
154.9208 -2.4
154.9504 -2.4
154.9837 -2.4
155.0126 -2.4
155.0413 -2.4
155.0721 -2.4
155.1054 -2.4
155.1387 -2.4
155.17 -2.4
155.2014 -2.4
155.2347 -2.4
155.2657 -2.4
155.299 -2.4
155.3324 -2.4
155.3635 -2.4
155.3922 -2.4
155.4229 -2.4
155.4562 -2.4
155.4857 -2.4
155.5144 -2.4
155.5442 -2.4
155.5732 -2.4
155.6066 -2.4
155.6376 -2.4
155.6663 -2.4
155.6955 -2.4
155.7276 -2.4
155.761 -2.4
155.7926 -2.4
155.819 -2.4
155.8504 -2.4
155.8837 -2.4
155.9171 -2.4
155.9449 -2.4
155.9773 -2.4
156.0069 -2.4
156.0383 -2.4
156.0716 -2.4
156.0997 -2.4
156.131 -2.4
156.1628 -2.4
156.1923 -2.4
156.2256 -2.4
156.2554 -2.4
156.2854 -2.4
156.3176 -2.4
156.3462 -2.4
156.3795 -2.4
156.4075 -2.4
156.439 -2.4
156.4688 -2.4
156.4977 -2.4
156.5311 -2.4
156.5602 -2.4
156.5925 -2.4
156.6258 -2.4
156.6546 -2.4
156.688 -2.4
156.7213 -2.4
156.7519 -2.4
156.781 -2.4
156.8129 -2.4
156.8462 -2.4
156.879 -2.4
156.9079 -2.4
156.9353 -2.4
156.965 -2.4
156.9984 -2.4
157.0264 -2.4
157.0545 -2.4
157.085 -2.4
157.1183 -2.4
157.1516 -2.4
157.1793 -2.4
157.2087 -2.4
157.24 -2.4
157.2713 -2.4
157.3046 -2.4
157.338 -2.4
157.3713 -2.4
157.3989 -2.4
157.4274 -2.4
157.4608 -2.4
157.4941 -2.4
157.522 -2.4
157.5504 -2.4
157.5803 -2.4
157.6136 -2.4
157.6462 -2.4
157.6736 -2.4
157.7051 -2.4
157.7358 -2.4
157.7691 -2.4
157.7976 -2.4
157.8272 -2.4
157.8589 -2.4
157.8916 -2.4
157.9249 -2.4
157.9553 -2.4
157.9836 -2.4
158.0104 -2.4
158.0409 -2.4
158.0742 -2.4
158.1076 -2.4
158.1398 -2.4
158.168 -2.15
158.2013 -1.95
158.2346 -1.95
158.2656 -1.5
158.2958 -0.85
158.3248 -0.85
158.3538 -0.4
158.3872 0.2
158.4141 0.2
158.4431 0.4
158.4756 0.4
158.5036 0.65
158.5369 0.85
158.5662 0.85
158.5979 1.3
158.6276 1.3
158.6593 2.15
158.6926 3.05
158.7236 3.05
158.7521 3.9
158.7794 4.55
158.8093 4.55
158.8427 5
158.8707 5.2
158.898 5.2
158.9265 5.85
158.9565 5.85
158.9898 7.2
159.0232 8.3
159.0565 8.3
159.0869 9.35
159.1147 10.9
159.148 10.9
159.1813 11.55
159.2105 11.55
159.2414 12.45
159.2699 13.1
159.3033 13.75
159.3352 13.75
159.3642 14.85
159.3952 14.85
159.4243 15.9
159.4576 17
159.4867 17
159.5157 18.3
159.5491 19.2
159.58 19.2
159.6134 20.3
159.6411 21.15
159.6732 21.15
159.7037 21.8
159.7321 21.8
159.7655 22.5
159.7957 23.15
159.8291 23.8
159.8591 23.8
159.8876 24.45
159.9209 25.1
159.9503 25.1
159.9818 25.55
160.0088 25.55
160.0421 26.2
160.0754 26.2
160.1039 26.2
160.1312 26.2
160.1629 26.2
160.1926 26.2
160.2259 26.2
160.2552 26.2
160.2855 26.2
160.3143 26.2
160.3471 26.2
160.3804 26.4
160.4136 26.4
160.442 26.4
160.4699 26.65
160.4984 26.65
160.5317 26.65
160.5607 26.65
160.5885 26.65
160.6166 26.65
160.6499 26.65
160.6832 26.65
160.7166 26.65
160.7451 26.65
160.7766 26.65
160.8068 26.65
160.8401 26.65
160.871 26.65
160.9009 26.65
160.9342 26.65
160.9646 26.85
160.9979 27.3
161.0274 27.3
161.0608 27.7
161.0893 28.15
161.1201 28.15
161.1534 28.6
161.1868 29.05
161.2141 29.05
161.2427 29.25
161.2725 29.25
161.3058 29.45
161.3331 29.7
161.3665 29.7
161.3966 30.1
161.425 31
161.4583 31
161.487 31.85
161.5154 32.3
161.5453 32.3
161.578 32.95
161.6113 32.95
161.6399 33.85
161.6691 34.25
161.6995 34.25
161.7265 35.15
161.7563 35.15
161.7897 36
161.823 37.1
161.8505 37.1
161.8838 38.4
161.9171 39.3
161.9504 39.3
161.978 40.6
162.0067 40.6
162.0393 41.9
162.0682 43.45
162.1015 43.45
162.1344 44.55
162.1639 45.85
162.1913 45.85
162.2197 47.15
162.2531 48.05
162.2864 48.05
162.3161 49.35
162.3454 49.35
162.3787 50.45
162.412 51.3
162.4405 51.95
162.4681 51.95
162.4995 52.85
162.5329 52.85
162.5662 53.7
162.5935 54.8
162.6243 54.8
162.6534 55.9
162.6809 55.9
162.7139 57
162.7464 58.1
162.7798 58.1
162.8079 59.4
162.8372 60.7
162.8705 60.7
162.9013 62.25
162.9298 63.3
162.9581 63.3
162.9899 64.85
163.0232 64.85
163.0565 66.15
163.0899 68.35
163.1231 70.1
163.1547 70.1
163.1881 71.85
163.2208 73.15
163.2541 73.15
163.2845 74.25
163.3159 75.35
163.3492 75.35
163.381 76
163.4144 76.65
163.4477 76.65
163.4787 76.85
163.512 77.3
163.5439 77.3
163.5709 77.95
163.6004 78.6
163.6337 78.6
163.6671 79.7
163.6952 81
163.7222 81
163.7522 82.55
163.7845 82.55
163.8178 83.65
163.846 84.95
163.8771 84.95
163.9087 86.25
163.937 86.25
163.9703 86.7
164.0003 87.15
164.0285 87.15
164.0575 87.35
164.0887 87.35
164.122 87.35
164.1508 87.35
164.1816 87.35
164.2122 87.35
164.2411 87.35
164.2744 87.35
164.3024 87.35
164.3347 87.35
164.3631 87.35
164.3925 87.15
164.4258 87.15
164.4568 87.15
164.4898 87.15
164.518 87.15
164.5465 87.15
164.5798 87.15
164.6104 87.15
164.6388 87.15
164.6671 87.15
164.6964 87.15
164.7297 87.15
164.7586 87.15
164.7899 87.15
164.8232 87.15
164.8541 87.15
164.8875 87.15
164.9154 87.15
164.945 87.15
164.9745 87.15
165.0078 87.15
165.0411 87.15
165.0742 87.15
165.1055 87.15
165.1388 87.15
165.168 87.15
165.2014 87.15
165.232 87.15
165.2646 87.15
165.2948 87.15
165.3246 87.15
165.3579 87.15
165.3912 87.15
165.4246 87.15
165.452 87.15
165.4806 87.15
165.5139 87.15
165.5429 87.15
165.5695 87.15
165.5982 87.15
165.6307 87.15
165.664 87.15
165.6942 87.15
165.7239 87.15
165.7568 87.15
165.7844 87.15
165.8177 87.15
165.851 87.15
165.8795 87.15
165.9092 87.15
165.9425 87.15
165.9758 87.15
166.0046 87.15
166.0336 87.15
166.0632 87.15
166.0935 87.15
166.1268 87.15
166.1547 87.15
166.1845 87.15
166.2178 87.15
166.2464 87.15
166.2797 87.15
166.3078 87.15
166.3382 87.15
166.3688 87.15
166.4021 87.15
166.4349 87.15
166.4674 87.15
166.4996 87.15
166.5283 87.15
166.5565 87.15
166.5898 87.15
166.6201 87.15
166.6469 87.15
166.676 87.15
166.7052 87.15
166.7385 87.15
166.7662 87.35
166.7938 87.35
166.8225 87.55
166.8524 87.8
166.8804 87.8
166.9137 88.25
166.944 88.9
166.975 88.9
167.0042 89.55
167.0341 89.55
167.0674 90.4
167.0959 91.5
167.1254 91.5
167.1587 92.4
167.1921 93.45
167.2254 93.45
167.2571 94.55
167.2847 94.55
167.3161 95.65
167.3494 96.75
167.3827 97.6
167.4143 97.6
167.4476 98.5
167.481 99.8
167.5096 99.8
167.5429 101.35
167.5732 102.85
167.6051 102.85
167.6334 103.95
167.6621 103.95
167.6954 105.7
167.7242 107.25
167.756 107.25
167.7829 108.3
167.8162 109.85
167.8495 109.85
167.8788 110.95
167.9068 110.95
167.9361 112.25
167.9666 113.35
167.9999 113.35
168.028 114
168.0612 115.1
168.092 115.1
168.122 115.75
168.1553 115.75
168.1887 116.4
168.222 116.65
168.2517 116.65
168.2787 116.85
168.3121 117.05
168.3406 117.05
168.3739 117.05
168.401 117.05
168.4297 117.05
168.463 117.05
168.4935 117.05
168.5221 117.05
168.552 117.05
168.582 117.05
168.6154 117.05
168.6437 117.05
168.6771 117.05
168.7079 117.05
168.7398 117.05
168.7731 117.05
168.8065 117.05
168.8346 117.05
168.8642 117.05
168.8975 117.05
168.9308 117.05
168.9639 117.05
168.991 117.05
169.0184 117.05
169.0475 117.05
169.0808 117.05
169.1142 117.05
169.1434 117.05
169.1754 116.85
169.2087 116.85
169.2421 116.65
169.2692 116.2
169.2983 116.2
169.3311 115.55
169.3611 115.55
169.3945 115.1
169.4268 114.65
169.4602 114.65
169.4935 114.2
169.5252 113.8
169.5585 113.55
169.588 113.55
169.6206 113.15
169.6505 113.15
169.6814 112.9
169.7147 112.7
169.7481 112.5
169.7795 112.5
169.8129 112.5
169.8453 112.5
169.8786 112.25
169.9058 112.25
169.9381 112.25
169.9678 112.25
169.9963 112.25
170.0296 112.25
170.0627 112.25
170.096 112.05
170.1282 112.05
170.1564 111.6
170.1898 110.95
170.2191 110.95
170.2483 109.85
170.2786 108.55
170.3119 108.55
170.3452 107.45
170.3736 107.45
170.3999 106.35
170.4319 105.25
170.4612 105.25
170.4945 104.15
170.5233 104.15
170.5566 103.1
170.5869 102.45
170.6164 102.45
170.6497 101.55
170.6824 100.9
170.7135 100.9
170.7444 99.8
170.7738 98.95
170.8071 97.85
170.8376 97.85
170.8709 96.55
170.8976 96.55
170.9281 95
170.9614 93.45
170.9934 93.45
171.0216 91.7
171.0513 91.7
171.0832 90
171.1165 88.65
171.1464 88.65
171.1759 87.15
171.2092 86.05
171.2398 86.05
171.2731 84.5
171.3028 83.4
171.332 83.4
171.3643 82.55
171.3925 82.55
171.4258 82.1
171.4564 81.25
171.4898 80.6
171.5172 80.6
171.5484 79.7
171.5818 79.7
171.6151 79.05
171.647 78.2
171.6774 78.2
171.7085 77.3
171.7418 76.65
171.7714 76.65
171.8022 75.55
171.8338 74.9
171.8645 74.9
171.8978 74.05
171.9263 73.6
171.9558 73.6
171.9867 72.95
172.0157 72.95
172.049 72.7
172.0823 72.5
172.1096 72.5
172.1382 72.5
172.168 72.5
172.2014 72.5
172.2314 72.5
172.2602 72.5
172.2935 72.5
172.3233 72.7
172.3566 72.7
172.3839 72.7
172.4131 73.15
172.4425 73.15
172.4757 73.6
172.509 74.05
172.5424 74.05
172.5726 74.45
172.6011 74.45
172.6284 75.1
172.6617 75.55
172.6912 75.55
172.7236 76
172.7514 76.45
172.7848 76.45
172.8181 76.65
172.8484 77.5
172.8778 77.5
172.908 78.85
172.9381 80.35
172.9715 80.35
173.0027 82.35
173.033 84.3
173.0627 84.3
173.0903 86.05
173.1237 86.05
173.1535 88
173.1851 89.75
173.2185 89.75
173.2473 91.05
173.2806 92.6
173.3106 92.6
173.3385 93.45
173.3666 93.45
173.3967 94.35
173.4301 95
173.4628 95
173.4922 95.2
173.5232 95.45
173.5543 95.45
173.5876 95.45
173.6161 95.45
173.6495 95.45
173.6788 95.45
173.7083 95.45
173.7417 95.45
173.775 95.65
173.8046 95.65
173.8346 95.65
173.862 95.65
173.8953 95.65
173.9287 95.65
173.9599 95.65
173.9881 95.65
174.0202 95.65
174.0536 95.65
174.0843 95.65
174.1164 95.65
174.1497 95.65
174.183 95.65
174.2164 95.65
174.2468 95.65
174.2801 95.65
174.3112 95
174.3445 94.15
174.3778 92.8
174.4092 92.8
174.4425 91.3
174.4709 89.1
174.5014 89.1
174.5347 87.15
174.568 85.15
174.5959 85.15
174.6254 82.75
174.6566 82.75
174.69 81
174.7233 79.05
174.7566 77.1
174.7873 77.1
174.8175 75.1
174.8509 73.15
174.8842 73.15
174.917 70.75
174.9468 68.15
174.9777 68.15
175.011 65.3
175.0406 63.1
175.071 63.1
175.1023 59.6
175.1302 59.6
175.1636 56.75
175.1943 53.05
175.2276 53.05
175.2604 50.45
175.292 47.6
175.3254 45
175.3544 45
175.3877 42.8
175.421 40.15
175.4543 37.75
175.4877 37.75
175.5156 35.8
175.545 33.6
175.5784 33.6
175.6117 31.2
175.6407 29.7
175.6727 29.7
175.7061 28.15
175.7394 26.2
175.7728 26.2
175.8061 24.2
175.8394 22.05
175.87 20.5
175.8999 20.5
175.9332 18.75
175.9665 17.9
175.9956 17.9
176.025 17
176.0559 17
176.0892 16.35
176.117 16.35
176.1442 16.35
176.1775 16.35
176.207 16.35
176.2403 16.35
176.2737 16.35
176.307 16.35
176.3403 16.35
176.3737 16.35
176.407 16.35
176.4403 16.35
176.4734 16.35
176.5067 16.35
176.5368 16.35
176.5701 16.35
176.6035 16.35
176.6366 16.35
176.6642 16.35
176.6944 16.35
176.7277 16.35
176.7562 16.35
176.7845 16.6
176.8161 16.6
176.8494 16.8
176.8828 17.65
176.9114 18.55
176.9416 18.55
176.9721 19.2
177.0044 19.2
177.0377 19.85
177.0686 20.3
177.0986 20.3
177.1279 20.5
177.1564 20.75
177.1897 20.75
177.2217 20.75
177.2543 20.75
177.2876 20.75
177.3175 20.75
177.3508 20.75
177.3808 20.75
177.4087 20.75
177.4416 20.95
177.4712 20.95
177.5045 21.15
177.5369 21.6
177.5658 21.6
177.5976 22.05
177.6255 22.05
177.6585 22.25
177.6878 22.5
177.7211 22.5
177.7493 22.5
177.7813 22.5
177.8146 22.5
177.848 22.5
177.8786 22.5
177.9084 22.5
177.9382 22.5
177.9715 22.5
178.0033 22.5
178.0309 22.5
178.0613 22.5
178.0946 22.5
178.1279 22.5
178.1564 22.5
178.1898 22.5
178.2231 22.5
178.2537 22.5
178.2871 22.5
178.3192 22.5
178.3518 22.5
178.3804 22.5
178.4103 22.5
178.4436 22.5
178.4769 22.5
178.5103 22.5
178.5404 22.5
178.5737 22.5
178.6071 22.5
178.6355 22.5
178.6688 22.5
178.7011 22.5
178.7345 22.5
178.7678 22.5
178.8001 22.5
178.8334 22.5
178.8667 22.5
178.9001 22.5
178.9282 22.5
178.9581 22.5
178.9915 22.5
179.0203 22.5
179.0536 22.5
179.0837 22.5
179.1142 22.5
179.1443 22.5
179.1725 22.5
179.2058 22.5
179.2392 22.5
179.2677 22.5
179.2975 22.5
179.3289 22.5
179.3623 22.5
179.3956 22.5
179.4289 22.5
179.4576 22.5
179.4909 22.5
179.5242 22.5
179.5576 22.5
179.5909 22.5
179.6242 22.5
179.657 22.5
179.6903 22.5
179.7234 22.5
179.753 22.5
179.7863 22.5
179.8148 22.5
179.8481 22.5
179.8797 22.25
179.9118 22.25
179.9429 22.25
179.9762 22.05
180.0096 22.05
180.0411 22.05
180.0723 22.05
180.1026 22.05
180.1326 22.05
180.1659 22.05
180.1992 22.05
180.2275 22.05
180.2605 22.05
180.2903 22.05
180.3237 22.05
180.357 22.05
180.3903 22.05
180.4188 22.05
180.4479 22.05
180.4812 22.05
180.5103 22.05
180.5437 22.05
180.5725 22.05
180.6036 22.05
180.637 22.05
180.6686 22.05
180.6979 22.05
180.7278 22.05
180.7591 22.05
180.7924 22.05
180.8214 22.05
180.8526 22.05
180.8859 22.05
180.916 22.05
180.9494 22.05
180.9787 22.05
181.0091 22.05
181.039 22.05
181.0722 22.05
181.1055 22.05
181.1386 22.05
181.172 22.05
181.2041 22.05
181.2362 22.05
181.2695 22.05
181.3028 22.05
181.3354 22.05
181.3643 22.05
181.3937 22.05
181.4271 22.05
181.4575 22.05
181.487 22.05
181.5203 22.05
181.5491 22.05
181.5825 22.05
181.6109 22.05
181.6395 22.05
181.6692 22.05
181.6974 22.05
181.7307 22.05
181.764 22.05
181.7971 22.05
181.8242 22.05
181.8575 22.05
181.8909 22.05
181.9189 22.05
181.9457 22.05
181.9748 22.05
182.0081 22.05
182.0415 22.05
182.0709 22.05
182.0996 22.05
182.1285 22.05
182.1566 22.05
182.1841 22.05
182.2175 22.05
182.2456 22.05
182.2782 22.05
182.3072 22.05
182.3406 22.05
182.3739 22.05
182.405 22.05
182.4329 22.05
182.4638 22.05
182.4972 22.05
182.5305 22.05
182.5617 22.05
182.5927 22.05
182.6221 22.05
182.6502 22.05
182.6835 22.05
182.7168 22.05
182.7455 22.05
182.7738 22.05
182.8052 22.05
182.8385 22.05
182.8678 22.05
182.896 22.05
182.9241 22.05
182.9542 22.05
182.9875 22.05
183.0153 22.05
183.0432 22.05
183.0751 22.05
183.1046 22.05
183.1379 22.05
183.1712 22.05
183.2043 22.05
183.2361 22.05
183.267 22.05
183.3003 22.05
183.3305 22.05
183.3612 22.05
183.3946 22.05
183.4224 22.05
183.4557 22.05
183.4845 22.05
183.5153 22.05
183.5437 22.05
183.5747 22.05
183.608 22.05
183.64 22.05
183.6718 22.05
183.7051 22.05
183.7357 22.05
183.769 22.05
183.7975 22.05
183.8291 22.05
183.8591 22.05
183.8904 22.05
183.9237 22.05
183.956 22.05
183.9849 22.05
184.014 22.05
184.046 22.05
184.0793 22.05
184.1127 22.05
184.1433 22.05
184.1706 22.05
184.2039 22.05
184.2373 22.05
184.2684 22.05
184.3006 22.05
184.3294 22.05
184.3628 22.05
184.3961 22.05
184.429 22.05
184.4588 22.05
184.4874 22.05
184.5199 22.05
184.5525 22.05
184.5817 22.05
184.6137 22.05
184.6435 22.05
184.672 22.05
184.7054 22.05
184.7387 22.05
184.7658 22.05
184.7947 22.05
184.8281 22.05
184.8614 22.05
184.893 22.05
184.9242 22.05
184.954 22.05
184.9837 22.05
185.017 22.05
185.0465 22.05
185.0762 22.05
185.1047 22.05
185.138 22.05
185.1712 22.05
185.2011 22.05
185.2306 22.05
185.2637 22.05
185.2914 22.05
185.3247 22.05
185.358 22.05
185.3864 22.05
185.4164 22.05
185.4449 22.05
185.4783 22.05
185.5072 22.05
185.5352 22.05
185.5672 22.05
185.6005 22.05
185.6339 22.05
185.6633 22.05
185.6962 22.05
185.727 22.05
185.7572 22.05
185.7906 22.05
185.8239 22.05
185.8517 22.05
185.88 22.05
185.9079 22.05
185.9413 22.05
185.9746 22.05
186.0025 22.05
186.03 22.05
186.0633 22.05
186.0967 22.05
186.1269 22.05
186.1552 22.05
186.185 22.05
186.2184 22.05
186.2517 22.05
186.2827 22.05
186.3114 22.05
186.3409 22.05
186.3704 22.05
186.4037 22.05
186.437 22.05
186.4704 22.05
186.5032 22.05
186.5328 22.05
186.5661 22.05
186.5953 22.05
186.6223 22.05
186.6557 22.05
186.6874 22.05
186.7207 22.05
186.7495 22.05
186.7773 22.05
186.8074 22.05
186.8365 22.05
186.8699 22.05
186.8965 22.05
186.9286 22.05
186.9619 22.05
186.9914 22.05
187.0242 22.05
187.0536 22.05
187.082 22.05
187.1143 22.05
187.1444 22.05
187.1778 22.05
187.2066 22.05
187.2376 22.05
187.2689 22.05
187.3003 22.05
187.3336 22.05
187.367 22.05
187.3939 22.05
187.4234 22.05
187.4528 22.05
187.4861 22.05
187.5156 22.05
187.5487 22.05
187.5793 22.05
187.6076 22.05
187.6409 22.05
187.67 22.05
187.6989 22.05
187.7279 22.05
187.7582 22.05
187.7915 22.05
187.8248 22.05
187.8537 22.05
187.8811 22.05
187.9144 22.05
187.9477 22.05
187.9762 22.05
188.0077 22.05
188.036 22.05
188.0657 22.05
188.099 22.05
188.13 22.05
188.1587 22.05
188.192 22.05
188.2219 22.05
188.2552 22.05
188.2885 22.05
188.3219 22.05
188.3526 22.05
188.3802 22.05
188.4135 22.05
188.442 22.05
188.47 22.05
188.4986 22.05
188.5312 22.05
188.5645 22.05
188.5979 22.05
188.6244 22.05
188.6538 22.05
188.6842 22.05
188.7175 22.05
188.7442 22.05
188.7754 22.05
188.8087 22.05
188.8363 22.05
188.8697 22.05
188.9016 22.05
188.9349 22.05
188.9629 22.05
188.9944 22.05
189.0277 22.05
189.0574 22.05
189.0861 22.05
189.1141 22.05
189.147 22.05
189.1803 22.05
189.2128 22.05
189.2462 22.05
189.2766 22.05
189.3078 22.05
189.3412 22.05
189.373 22.05
189.4064 22.05
189.4397 22.05
189.473 22.05
189.5064 22.05
189.5397 22.05
189.573 22.05
189.6064 22.05
189.6397 22.05
189.673 22.05
189.7052 22.05
189.7385 22.05
189.7713 22.05
189.8046 22.05
189.8379 22.05
189.8684 22.05
189.9017 22.05
189.9351 22.05
189.9684 22.05
190.0017 22.05
190.035 22.05
190.0676 22.05
190.101 22.05
190.1323 22.05
190.1623 22.05
190.1956 22.05
190.2267 22.05
190.26 22.05
190.2906 22.05
190.3231 22.05
190.3564 22.05
190.3898 22.05
190.4231 22.05
190.4536 22.05
190.4869 22.05
190.5187 22.05
190.5502 22.05
190.5836 22.05
190.6169 22.05
190.6482 22.05
190.678 22.05
190.7113 22.05
190.7447 22.05
190.7764 22.05
190.8098 22.05
190.8405 22.05
190.8739 22.05
190.9072 22.05
190.938 22.05
190.9713 22.05
191.0016 22.05
191.0349 22.05
191.0683 22.05
191.0982 22.05
191.1316 22.05
191.1649 22.05
191.1937 22.05
191.227 22.05
191.2604 22.05
191.2901 22.05
191.3188 22.05
191.35 22.05
191.3833 22.05
191.416 22.05
191.4485 22.05
191.4819 22.05
191.5142 22.05
191.5475 22.05
191.5792 22.05
191.6126 22.05
191.6458 22.05
191.6766 22.05
191.7099 22.05
191.7433 22.05
191.7766 22.05
191.8066 22.05
191.8384 22.05
191.8717 22.05
191.9029 22.05
191.9362 22.05
191.9643 22.05
191.9977 22.05
192.031 22.05
192.0643 22.05
192.0976 22.05
192.131 22.05
192.1643 22.05
192.1976 22.05
192.229 22.05
192.2605 22.05
192.2938 22.05
192.3271 22.05
192.3605 22.05
192.3912 22.05
192.4219 22.05
192.4543 22.05
192.4829 22.05
192.5162 22.05
192.5496 22.05
192.5819 22.05
192.6152 22.05
192.6485 22.05
192.6819 22.05
192.7152 22.05
192.7485 22.05
192.7813 22.05
192.8146 22.05
192.8479 22.05
192.8793 22.05
192.911 22.05
192.9443 22.05
192.9776 22.05
193.011 22.05
193.0428 22.05
193.075 22.05
193.1051 22.05
193.1359 22.05
193.1693 22.05
193.202 22.05
193.2354 22.05
193.2684 22.05
193.3017 22.05
193.335 22.05
193.3675 22.05
193.4008 22.05
193.4341 22.05
193.4658 22.05
193.4991 22.05
193.5324 22.05
193.5658 22.05
193.5991 22.05
193.6324 22.05
193.6637 22.05
193.697 22.05
193.7304 22.05
193.761 22.05
193.791 22.05
193.8244 22.05
193.8577 22.05
193.891 22.05
193.9244 22.05
193.9577 22.05
193.9882 22.05
194.0215 22.05
194.052 22.05
194.0853 22.05
194.118 22.05
194.1513 22.05
194.1846 22.05
194.2161 22.05
194.2495 22.05
194.2812 22.05
194.3146 22.05
194.3479 22.05
194.3812 22.05
194.4146 22.05
194.4433 22.05
194.4767 22.05
194.51 22.05
194.5414 22.05
194.5708 22.05
194.6041 22.05
194.6375 22.05
194.6708 22.05
194.6992 22.05
194.7325 22.05
194.763 22.05
194.7963 22.05
194.8297 22.05
194.863 22.05
194.8963 22.05
194.9297 22.05
194.9605 22.05
194.9938 22.05
