時間[s] タイヤの舵角[deg]
0 0
0.02 -2.15
0.05333333 -2.15
0.08666666 -2.15
0.12 -2.15
0.1533333 -2.15
0.1866667 -2.15
0.2164696 -2.15
0.2498029 -2.15
0.2831362 -2.15
0.3164696 -2.15
0.3467056 -2.15
0.380039 -2.15
0.4133723 -2.15
0.4414355 -2.15
0.469768 -2.15
0.4997992 -2.15
0.5288397 -2.15
0.5615637 -2.15
0.594897 -2.15
0.6235148 -2.15
0.6555513 -2.15
0.686752 -2.15
0.7158794 -2.15
0.7468457 -2.15
0.7751523 -2.15
0.8036116 -2.15
0.836945 -2.15
0.8663545 -2.15
0.8958367 -2.15
0.9287113 -2.15
0.9579404 -2.15
0.9896161 -2.15
1.022949 -2.15
1.054841 -2.15
1.087466 -2.15
1.118636 -2.15
1.149437 -2.15
1.180584 -2.15
1.210697 -2.15
1.242154 -2.15
1.270295 -2.15
1.303628 -2.15
1.335669 -2.15
1.364447 -2.15
1.39778 -2.15
1.431114 -2.15
1.463996 -2.15
1.493625 -2.15
1.52267 -2.15
1.553661 -2.15
1.586232 -2.15
1.61749 -2.15
1.647506 -2.15
1.680839 -2.15
1.712083 -2.15
1.744105 -2.15
1.773156 -2.15
1.804533 -2.15
1.837113 -2.15
1.870447 -2.15
1.901145 -2.15
1.931414 -2.15
1.960812 -2.15
1.991008 -2.15
2.022223 -2.15
2.053205 -2.15
2.082661 -2.15
2.115994 -2.15
2.147822 -2.15
2.179976 -2.15
2.211077 -2.15
2.24184 -2.15
2.273048 -2.15
2.306381 -2.15
2.334962 -2.15
2.365269 -2.15
2.397543 -2.15
2.429442 -2.15
2.458741 -2.15
2.490151 -2.15
2.523484 -2.15
2.552323 -2.15
2.585548 -2.15
2.618881 -2.15
2.647658 -2.15
2.679001 -2.15
2.711165 -2.15
2.744498 -2.15
2.773346 -2.15
2.802486 -2.15
2.832152 -2.15
2.862799 -2.15
2.896112 -2.15
2.927384 -2.15
2.955958 -2.15
2.989291 -2.15
3.018591 -2.15
3.049317 -2.15
3.079079 -2.15
3.110226 -2.15
3.143559 -2.15
3.174588 -2.15
3.203444 -2.15
3.233403 -2.15
3.262812 -2.15
3.292325 -2.15
3.321992 -2.15
3.355325 -2.15
3.383117 -2.15
3.41645 -2.15
3.444725 -2.15
3.478058 -2.15
3.510779 -2.15
3.540439 -2.15
3.573772 -2.15
3.605211 -2.15
3.638545 -2.15
3.668443 -2.15
3.701774 -2.15
3.734114 -2.15
3.767447 -2.15
3.798923 -2.15
3.832257 -2.15
3.864146 -2.15
3.893854 -2.15
3.922232 -2.15
3.955565 -2.15
3.987598 -2.15
4.020931 -2.15
4.054265 -2.15
4.087598 -2.15
4.120931 -2.15
4.154056 -2.15
4.184344 -2.15
4.215693 -2.15
4.244884 -2.15
4.278218 -2.15
4.307877 -2.15
4.34121 -2.15
4.374544 -2.15
4.404789 -2.15
4.435503 -2.15
4.466146 -2.15
4.49948 -2.15
4.52837 -2.15
4.561703 -2.15
4.592542 -2.15
4.625875 -2.15
4.657155 -2.15
4.690043 -2.15
4.72144 -2.15
4.75435 -2.15
4.787683 -2.15
4.821017 -2.15
4.85435 -2.15
4.887683 -2.15
4.918884 -2.15
4.952217 -1.95
4.981216 -1.7
5.011935 -1.7
5.041818 -1.3
5.072992 -1.3
5.105223 -1.05
5.138557 -0.65
5.165599 -0.65
5.194451 -0.2
5.224309 -0.2
5.255324 0
5.284534 0.2
5.317867 0.2
5.350708 0.4
5.380003 0.4
5.410157 0.4
5.440503 0.4
5.472875 0.4
5.506148 0.4
5.536405 0.4
5.569738 0.4
5.598132 0.4
5.62821 0.4
5.661234 0.4
5.694567 0.4
5.727516 0.4
5.760849 0.4
5.794182 0.4
5.82701 0.4
5.856853 0.4
5.887898 0.4
5.917384 0.4
5.947697 0.4
5.977442 0.4
6.010776 0.4
6.041243 0.4
6.074071 0.4
6.103773 0.4
6.137106 0.4
6.16736 0.4
6.200694 0.4
6.234027 0.4
6.264195 0.4
6.297369 0.4
6.330007 0.4
6.359006 0.4
6.38813 0.4
6.421463 0.4
6.454797 0.4
6.486845 0.4
6.518902 0.4
6.549899 0.4
6.583232 0.4
6.615037 0.4
6.64837 0.4
6.678495 0.4
6.708854 0.4
6.741945 0.4
6.774479 0.4
6.805644 0.4
6.838977 0.4
6.869705 0.4
6.902206 0.4
6.932065 0.4
6.962259 0.4
6.993403 0.4
7.025938 0.4
7.055352 0.4
7.088685 0.4
7.121132 0.4
7.150887 0.4
7.182422 0.4
7.214123 0.4
7.242151 0.4
7.275485 0.4
7.308818 0.4
7.33831 0.4
7.368515 0.4
7.401849 0.4
7.431089 0.4
7.462723 0.65
7.496057 0.65
7.527007 0.85
7.557762 1.05
7.590722 1.05
7.622427 1.05
7.65576 1.05
7.685534 1.05
7.718822 1.05
7.752156 1.05
7.785489 1.05
7.818822 1.05
7.851192 1.05
7.884526 1.05
7.917859 1.05
7.947435 1.05
7.97845 1.05
8.010608 1.05
8.040901 1.05
8.074234 1.05
8.107568 1.05
8.13658 1.05
8.169914 1.05
8.19835 1.05
8.231684 1.05
8.265017 1.05
8.295553 1.05
8.328887 1.05
8.3585 1.05
8.391832 1.05
8.422383 1.05
8.455717 1.05
8.48905 1.05
8.522384 1.05
8.555717 1.05
8.58425 1.05
8.617584 1.05
8.649755 1.05
8.683088 1.05
8.716421 1.05
8.746562 1.05
8.774612 1.05
8.805216 1.05
8.835835 1.05
8.869168 1.05
8.898956 1.05
8.93229 1.05
8.964961 1.05
8.994658 1.05
9.027991 1.05
9.061037 1.05
9.094371 1.05
9.127704 1.05
9.156976 1.05
9.19031 1.05
9.219988 1.05
9.253321 1.05
9.283579 1.05
9.316912 1.05
9.350245 1.05
9.379988 1.05
9.41095 1.05
9.442358 1.05
9.475692 1.05
9.509026 1.05
9.536983 1.3
9.570317 1.3
9.599637 1.5
9.629271 1.95
9.662603 1.95
9.695234 2.6
9.728568 3.05
9.761901 3.05
9.793576 3.25
9.826909 3.25
9.854611 3.25
9.88385 3.25
9.9131 3.25
9.946434 3.25
9.979767 3.25
10.0131 3.25
10.04319 3.25
10.07267 3.25
10.10169 3.25
10.13502 3.25
10.16835 3.25
10.19974 3.25
10.22855 3.25
10.26188 3.25
10.29521 3.25
10.32855 3.25
10.35856 3.25
10.39189 3.25
10.4212 3.25
10.45453 3.25
10.48357 3.25
10.51433 3.25
10.54445 3.05
10.57778 3.05
10.61111 3.05
10.64425 3.05
10.67245 3.05
10.7022 2.8
10.73059 2.6
10.76393 2.6
10.7926 2.4
10.82593 2.4
10.85309 2.4
10.88287 2.4
10.91621 2.4
10.9463 2.4
10.9796 2.4
11.01293 2.4
11.0422 2.4
11.07553 2.4
11.10395 2.4
11.13475 2.4
11.16809 2.4
11.20137 2.4
11.2347 2.4
11.26804 2.4
11.29761 2.4
11.33094 2.4
11.36312 2.4
11.39645 2.4
11.42597 2.4
11.45789 2.4
11.48748 2.4
11.52081 2.4
11.55414 2.4
11.58748 2.4
11.62081 2.4
11.65378 2.4
11.68458 2.4
11.71791 2.4
11.74974 2.4
11.77893 2.4
11.8072 2.4
11.83826 2.4
11.87159 2.4
11.90177 2.4
11.93269 2.4
11.96377 2.4
11.99405 2.4
12.02738 2.4
12.05828 2.4
12.09161 2.4
12.12269 2.4
12.15311 2.4
12.18645 2.4
12.21583 2.4
12.24521 2.4
12.27854 2.4
12.30834 2.4
12.34167 2.4
12.37197 2.4
12.40243 2.4
12.43501 2.4
12.46731 2.4
12.50064 2.4
12.53166 2.4
12.56155 2.4
12.59488 2.4
12.62822 2.4
12.66155 2.4
12.69319 2.4
12.72652 2.4
12.75528 2.4
12.78694 2.4
12.82028 2.4
12.85072 2.6
12.88405 2.6
12.91539 2.8
12.9453 2.8
12.97863 2.8
13.00765 3.05
13.03889 3.05
13.06835 3.05
13.10168 3.05
13.13501 3.05
13.1657 3.05
13.1952 3.05
13.22534 3.05
13.25559 3.05
13.28892 3.05
13.32225 3.05
13.35489 3.05
13.38419 3.05
13.41538 3.25
13.44872 3.25
13.48205 3.25
13.5107 3.25
13.54142 3.25
13.57423 3.25
13.60757 3.25
13.63734 3.25
13.67068 3.25
13.69919 3.25
13.73158 3.25
13.76492 3.25
13.79676 3.25
13.82617 3.25
13.85678 3.25
13.89011 3.25
13.92345 3.25
13.95571 3.25
13.98758 3.25
14.01743 3.25
14.05076 3.25
14.08409 3.25
14.11743 3.25
14.14901 3.25
14.18194 3.25
14.21442 3.25
14.24776 3.25
14.2767 3.25
14.31003 3.25
14.34323 3.25
14.37444 3.25
14.40777 3.25
14.43956 3.25
14.47038 3.25
14.50257 3.25
14.53409 3.25
14.56742 3.25
14.59659 3.25
14.62993 3.25
14.6597 3.25
14.6914 3.25
14.72473 3.25
14.75479 3.25
14.78668 3.25
14.81757 3.25
14.84674 3.25
14.88008 3.25
14.90918 3.25
14.94251 3.25
14.97102 3.25
15.00435 3.25
15.03768 3.25
15.06765 3.25
15.10098 3.25
15.13432 3.25
15.16356 3.25
15.19689 3.25
15.22459 3.25
15.25792 3.25
15.29125 3.25
15.32197 3.25
15.3553 3.25
15.38389 3.25
15.41182 3.25
15.44383 3.25
15.47607 3.25
15.5094 3.25
15.53764 3.25
15.56929 3.25
15.60105 3.25
15.63083 3.25
15.66416 3.25
15.69749 3.25
15.73083 3.25
15.76114 3.25
15.79298 3.25
15.82632 3.25
15.85847 3.25
15.8918 3.25
15.92415 3.25
15.95685 3.25
15.99018 3.25
16.02209 3.25
16.05542 3.25
16.08558 3.25
16.11619 3.25
16.14952 3.25
16.17836 3.25
16.21119 3.25
16.24452 3.25
16.27468 3.25
16.30801 3.25
16.34134 3.25
16.37228 3.25
16.40561 3.25
16.43534 3.25
16.46867 3.25
16.49745 3.25
16.52919 3.25
16.55789 3.25
16.58902 3.25
16.62235 3.25
16.65568 3.25
16.68819 3.25
16.72074 3.25
16.74996 3.25
16.78329 3.25
16.81113 3.25
16.84447 3.25
16.87363 3.25
16.90449 3.25
16.93782 3.25
16.96733 3.25
17.00067 3.25
17.02999 3.25
17.0621 3.25
17.09543 3.25
17.12324 3.25
17.15657 3.25
17.18536 3.25
17.21869 3.25
17.25203 3.25
17.28536 3.25
17.31542 3.25
17.3487 3.25
17.38078 3.25
17.41411 3.25
17.44296 3.25
17.4763 3.25
17.50655 3.25
17.53744 3.25
17.57077 3.25
17.60028 3.25
17.62873 3.25
17.66206 3.25
17.69164 3.25
17.72498 3.25
17.75308 3.25
17.78342 3.25
17.81556 3.25
17.84536 3.25
17.87869 3.25
17.90946 3.25
17.93917 3.25
17.96822 3.25
18.00094 3.25
18.03428 3.25
18.06257 3.25
18.09207 3.25
18.12085 3.25
18.15103 3.25
18.18436 3.25
18.21769 3.25
18.24846 3.25
18.28179 3.25
18.31164 3.25
18.34497 3.25
18.37562 3.25
18.4071 3.25
18.43989 3.25
18.47068 3.25
18.50401 3.25
18.53403 3.25
18.5639 3.25
18.59632 3.25
18.62966 3.25
18.66299 3.25
18.69174 3.25
18.7211 3.25
18.7508 3.25
18.7813 3.25
18.81464 3.25
18.84346 3.25
18.87296 3.25
18.90574 3.25
18.93537 3.25
18.9687 3.25
18.99624 3.25
19.02608 3.25
19.05942 3.25
19.0907 3.25
19.12403 3.25
19.15737 3.25
19.1858 3.25
19.21913 3.25
19.25003 3.25
19.28337 3.25
19.31257 3.25
19.34591 3.25
19.37924 3.25
19.41135 3.25
19.44468 3.25
19.47746 3.25
19.51079 3.25
19.54412 3.25
19.57315 3.25
19.60648 3.25
19.63981 3.25
19.67081 3.25
19.69847 3.25
19.7296 3.25
19.76293 3.25
19.79292 3.25
19.82141 3.25
19.85238 3.25
19.88312 3.25
19.91646 3.25
19.94924 3.25
19.98038 3.25
20.01183 3.25
20.04444 3.25
20.07777 3.25
20.10964 3.25
20.14036 3.45
20.17369 3.45
20.20482 3.9
20.23815 4.35
20.27144 4.35
20.30287 4.8
20.3362 5.2
20.36746 5.65
20.40079 5.65
20.43381 5.85
20.46519 6.1
20.49661 6.1
20.52994 6.3
20.56328 6.55
20.59661 6.55
20.62994 6.75
20.66031 6.75
20.69364 6.75
20.72697 6.95
20.75972 7.4
20.78971 7.4
20.82304 8.05
20.85637 8.5
20.88971 8.5
20.92281 9.15
20.95321 9.35
20.98378 9.35
21.01711 9.8
21.05044 10.25
21.08099 10.25
21.11432 10.7
21.14455 11.1
21.17476 11.1
21.2081 11.75
21.23859 12.45
21.27192 12.45
21.30525 13.1
21.33557 13.75
21.3689 13.75
21.39976 14.15
21.43252 14.15
21.46341 14.4
21.49674 14.6
21.53008 14.6
21.56341 14.6
21.59275 14.6
21.62463 14.6
21.65797 14.6
21.6913 14.6
21.72078 14.85
21.75162 14.85
21.78115 15.05
21.81392 15.5
21.84725 15.5
21.87904 16.15
21.9079 16.8
21.93586 16.8
21.96847 17.65
22.0018 18.3
22.03514 18.3
22.0635 19.2
22.09342 20.05
22.12175 20.05
22.15508 20.75
22.1837 21.15
22.21704 21.15
22.24682 21.6
22.2774 21.6
22.31073 22.05
22.3409 22.25
22.37192 22.25
22.40526 22.5
22.43489 22.7
22.46823 22.7
22.4971 23.15
22.52732 23.15
22.55524 23.8
22.58857 24.65
22.6219 24.65
22.65335 25.3
22.6822 26.2
22.71553 26.2
22.74886 27.05
22.7822 28.15
22.81374 28.15
22.84443 28.8
22.87423 29.7
22.90607 29.7
22.9394 30.8
22.97274 31.85
23.00075 31.85
23.03408 32.95
23.06469 33.85
23.09803 33.85
23.1274 34.7
23.16073 35.6
23.18989 35.6
23.22037 36.25
23.25371 36.25
23.28646 36.9
23.31577 37.75
23.34911 37.75
23.37818 38.85
23.41151 40.15
23.44331 40.15
23.47479 41.5
23.50389 42.8
23.53452 42.8
23.56785 43.65
23.59757 45
23.62627 45
23.65682 45.4
23.69016 45.4
23.72349 45.4
23.75341 45.2
23.78339 45.2
23.81467 45.2
23.84469 45.2
23.87802 45.2
23.90771 45.85
23.93786 46.5
23.9712 46.5
24.00076 48.25
24.0341 50.2
24.06559 50.2
24.09661 51.55
24.12634 53.3
24.15876 53.3
24.19209 54.35
24.22542 55.9
24.25306 55.9
24.28303 56.35
24.31216 56.55
24.34549 56.55
24.37609 56.55
24.40645 56.55
24.43672 56.55
24.46852 56.55
24.50186 56.55
24.53226 56.55
24.56559 56.55
24.59782 56.55
24.62762 56.55
24.66095 56.55
24.69101 56.55
24.7243 56.55
24.75365 56.55
24.78451 56.55
24.81784 56.55
24.85118 56.55
24.88039 56.55
24.91372 56.55
24.94634 56.55
24.97968 56.55
25.01025 56.75
25.04358 57
25.07256 57
25.10224 57.65
25.13558 58.3
25.16891 58.3
25.20224 59.4
25.23177 59.4
25.26123 60.5
25.29456 61.35
25.32401 61.35
25.35465 62
25.38798 62.25
25.41811 62.25
25.45145 62.25
25.48478 62.25
25.51329 62.25
25.54407 62.25
25.57439 62.25
25.60772 62.25
25.64105 62.25
25.67373 62.25
25.70448 62.25
25.73464 62.25
25.76797 62.25
25.79677 62.25
25.82947 62.25
25.85938 62.25
25.88882 62.25
25.92215 62.25
25.95548 62.25
25.98882 62.45
26.01911 62.45
26.05244 62.65
26.08234 63.1
26.11454 63.1
26.14788 63.3
26.18044 63.3
26.21378 64
26.24409 64.4
26.27315 64.4
26.30643 64.65
26.33976 65.05
26.37309 65.3
26.40417 65.3
26.4375 65.5
26.46754 65.5
26.49958 65.75
26.53292 65.95
26.56374 65.95
26.59708 66.15
26.63041 66.4
26.66241 67.05
26.69575 67.05
26.72908 67.7
26.76241 68.55
26.79185 68.55
26.82151 69.45
26.85484 70.55
26.88594 70.55
26.91928 71.85
26.95061 73.35
26.98134 73.35
27.01467 74.9
27.04457 74.9
27.0779 76.2
27.11017 77.3
27.14064 77.3
27.17398 79.25
27.20225 80.8
27.22952 80.8
27.25967 81.9
27.29301 83.4
27.32634 83.4
27.35875 84.5
27.38923 85.6
27.42085 85.6
27.45299 86.7
27.48632 87.35
27.51966 87.35
27.54983 88
27.5822 88.9
27.61164 88.9
27.64498 89.75
27.6781 91.05
27.70891 91.05
27.73893 92.15
27.76985 92.15
27.80318 93.7
27.83652 94.8
27.86765 94.8
27.8979 96.1
27.92693 96.95
27.96026 96.95
27.98928 97.6
28.02262 98.05
28.05124 98.05
28.08386 98.3
28.11719 98.3
28.14694 98.3
28.17621 98.3
28.20632 98.3
28.23573 98.3
28.26907 98.3
28.3024 98.3
28.33573 98.3
28.36474 98.3
28.39807 98.3
28.4314 98.3
28.46115 98.3
28.49224 98.3
28.52351 98.3
28.55684 98.3
28.59017 98.3
28.61894 98.3
28.65228 98.3
28.6819 98.3
28.71523 98.3
28.74856 98.3
28.77884 98.3
28.80798 98.3
28.83869 98.3
28.87203 98.05
28.90536 98.05
28.93617 98.05
28.96691 98.05
29.00024 98.05
29.03357 97.6
29.06691 97.2
29.09904 97.2
29.12788 96.55
29.15762 96.1
29.19095 96.1
29.22429 95.85
29.25389 95.2
29.28439 95.2
29.31646 94.35
29.3498 93.7
29.38313 93.7
29.41646 92.8
29.4498 91.95
29.48265 91.05
29.51598 91.05
29.54931 90.2
29.57854 89.1
29.60923 89.1
29.63745 88.25
29.66871 88.25
29.70205 87.55
29.73309 86.9
29.76642 86.9
29.79689 86.25
29.83022 85.6
29.86356 85.6
29.89224 84.75
29.92311 83.85
29.9519 83.85
29.98523 83.2
30.01856 82.55
30.0519 82.55
30.08063 82.1
30.11033 81.65
30.13997 81.65
30.1733 81.45
30.20158 81.45
30.23491 81.45
30.26397 81.45
30.29395 81.45
30.32728 81.25
30.35979 80.6
30.39052 80.6
30.42244 79.7
30.45566 78.6
30.48899 77.3
30.51962 77.3
30.55029 75.8
30.57912 75.8
30.61245 74.45
30.64578 72.5
30.67912 72.5
30.7089 70.75
30.74224 69.2
30.77557 69.2
30.8089 67.5
30.84224 65.75
30.87138 64
30.90471 64
30.93465 62.45
30.96798 61.35
30.99871 61.35
31.03147 60.05
31.06388 60.05
31.09537 58.95
31.1287 58.3
31.16075 58.3
31.19089 57.65
31.22313 57.2
31.25432 57.2
31.28765 56.55
31.31799 55.9
31.35035 55.9
31.38368 55.25
31.4143 53.95
31.44764 53.95
31.47984 53.05
31.50948 51.75
31.54282 51.75
31.57615 50.45
31.60948 49.35
31.64239 48.05
31.67456 48.05
31.70789 47.15
31.73693 45.65
31.77027 45.65
31.79922 44.3
31.82919 43
31.85798 43
31.88784 41.9
31.92117 41.25
31.95451 41.25
31.98395 40.15
32.01423 40.15
32.0433 39.5
32.07664 38.85
32.10572 38.85
32.13902 38.4
32.16747 37.35
32.19748 37.35
32.23082 36.9
32.26075 35.35
32.29028 35.35
32.3225 34.5
32.35541 33.6
32.38874 33.6
32.4174 32.5
32.44959 31.45
32.47756 31.45
32.50808 30.55
32.54141 30.35
32.57172 30.35
32.60276 30.35
32.63391 30.35
32.66725 30.35
32.70058 29.9
32.73372 28.6
32.76417 28.6
32.79323 27.3
32.82656 27.3
32.85989 25.95
32.88986 24.45
32.92264 24.45
32.9523 23.35
32.9813 22.05
33.01464 22.05
33.04391 21.15
33.07724 20.05
33.10624 20.05
33.13615 19.65
33.16949 19.65
33.19954 19.4
33.22925 19.4
33.26258 19.4
33.2921 19.4
33.32543 19.4
33.35657 19.4
33.38837 19.4
33.42171 19.4
33.45504 19.65
33.48838 19.65
33.51949 19.85
33.55029 20.05
33.58267 20.05
33.61467 20.05
33.64801 20.05
33.68134 20.05
33.71101 20.05
33.7423 20.05
33.7728 20.05
33.80614 20.05
33.83947 20.05
33.87279 20.05
33.90253 20.05
33.93216 20.05
33.9655 19.85
33.99418 19.65
34.02488 19.65
34.05542 19.4
34.08524 19
34.11858 19
34.14912 18.55
34.17879 18.55
34.21212 18.1
34.2453 18.1
34.27863 17.65
34.30798 17.65
34.34132 17.45
34.37046 17.45
34.39994 17.25
34.43327 16.8
34.46424 16.35
34.49305 16.35
34.52265 15.7
34.55548 15.7
34.58881 15.25
34.61808 14.4
34.6485 14.4
34.68183 13.95
34.71276 13.3
34.74609 13.3
34.77942 12.85
34.80814 12.45
34.84147 12.45
34.87143 12.2
34.90476 11.75
34.93529 11.75
34.96862 11.35
34.9972 10.7
35.0274 10.7
35.06073 10
35.09264 10
35.12165 9.6
35.1537 9.35
35.18703 9.35
35.22037 9.15
35.25002 9.15
35.28335 9.15
35.31668 9.15
35.34768 9.15
35.38101 9.15
35.41135 9.15
35.44178 8.95
35.47511 8.95
35.50844 8.7
35.54177 8.5
35.57495 8.3
35.60533 8.3
35.63403 8.3
35.6657 8.3
35.69904 8.3
35.73149 8.3
35.76482 8.3
35.79422 8.3
35.82403 8.3
35.85737 8.3
35.88734 8.3
35.91894 8.05
35.95227 8.05
35.98341 7.6
36.01675 7.2
36.05008 6.55
36.07793 6.55
36.11117 5.85
36.1445 5.85
36.17784 5.45
36.2111 5
36.24042 4.8
36.26944 4.8
36.30177 4.55
36.3351 4.55
36.36757 4.55
36.39651 4.55
36.42622 4.55
36.45956 4.55
36.49289 4.55
36.52549 4.15
36.55548 4.15
36.58619 3.7
36.61693 3.7
36.65026 3.25
36.68359 3.05
36.71353 3.05
36.74645 2.8
36.77542 2.8
36.80876 2.8
36.83772 2.8
36.86721 2.8
36.89763 2.8
36.92897 2.6
36.9623 2.15
36.99195 2.15
37.02528 1.5
37.0558 1.5
37.08544 1.05
37.11877 0.65
37.14966 0.65
37.18299 0.4
37.21608 0.2
37.24563 0.2
37.27896 0
37.3123 -0.2
37.34563 -0.2
37.37897 -0.2
37.40954 -0.4
37.44287 -0.4
37.47167 -0.65
37.50129 -0.65
37.53259 -0.65
37.56593 -1.05
37.59926 -1.7
37.62868 -1.7
37.65905 -2.4
37.69026 -2.6
37.7193 -2.6
37.75263 -2.8
37.78547 -2.8
37.8188 -2.8
37.8475 -2.8
37.87733 -2.8
37.91067 -2.8
37.944 -2.8
37.97272 -2.8
38.00503 -2.8
38.03627 -2.8
38.0696 -2.8
38.10294 -2.8
38.13232 -2.8
38.16197 -2.8
38.1953 -2.8
38.22864 -2.8
38.26197 -2.8
38.29362 -2.8
38.32453 -2.8
38.35619 -2.8
38.38952 -2.8
38.4185 -2.8
38.44862 -2.8
38.47738 -2.8
38.50898 -2.8
38.54231 -2.8
38.57465 -2.8
38.60761 -2.8
38.63789 -2.8
38.67122 -2.8
38.70455 -2.8
38.73664 -2.8
38.76723 -2.8
38.79596 -2.8
38.82637 -2.8
38.8597 -2.8
38.89303 -2.8
38.92163 -2.8
38.95497 -2.8
38.98512 -2.8
39.01845 -2.8
39.04719 -2.8
39.07663 -2.8
39.10579 -2.8
39.13913 -2.8
39.17246 -2.8
39.20392 -2.8
39.23365 -2.8
39.26699 -2.8
39.2975 -2.8
39.33083 -2.8
39.36365 -2.8
39.39338 -2.8
39.42559 -2.8
39.45758 -2.8
39.49091 -2.8
39.52153 -2.8
39.55486 -2.8
39.58605 -2.8
39.61769 -2.8
39.65103 -2.8
39.68073 -2.8
39.71407 -2.8
39.7474 -2.8
39.77734 -2.8
39.81068 -2.6
39.84072 -2.6
39.87202 -2.4
39.90174 -2.15
39.93464 -2.15
39.96797 -1.7
40.0013 -1.5
40.03457 -1.5
40.0679 -0.85
40.09784 -0.65
40.13118 -0.65
40.16451 -0.2
40.19747 0
40.22898 0
40.25831 0
40.29164 0
40.32241 0
40.35536 0
40.38453 0
40.41536 0
40.44869 0
40.48041 0
40.50972 0
40.5399 0
40.57323 0
40.60657 0
40.63704 0.2
40.66804 0.2
40.6981 0.4
40.7305 0.65
40.76383 0.65
40.79716 0.85
40.82625 1.05
40.85958 1.05
40.89292 1.3
40.92625 1.5
40.95708 1.5
40.9873 1.5
41.01661 1.5
41.04779 1.5
41.08113 1.5
41.1103 1.5
41.1403 1.5
41.1729 1.5
41.2017 1.5
41.23503 1.5
41.26826 1.5
41.29858 1.5
41.33142 1.5
41.36197 1.5
41.3953 1.5
41.42863 1.5
41.45913 1.5
41.49067 1.5
41.52131 1.5
41.55464 1.5
41.58797 1.5
41.62131 1.5
41.65081 1.7
41.68178 1.95
41.71511 1.95
41.74474 1.95
41.77349 1.95
41.80376 1.95
41.83296 1.95
41.86629 1.95
41.8983 1.95
41.92781 1.95
41.95667 1.95
41.99 1.95
42.02333 1.95
42.05363 1.95
42.08581 1.5
42.11914 1.3
42.14777 1.3
42.18111 1.05
42.20974 0.65
42.23985 0.65
42.26906 0.4
42.29956 0.4
42.3329 0.2
42.36335 0
42.39194 0
42.42447 0
42.45364 0
42.48697 0
42.51541 0
42.54593 0
42.57645 0
42.60632 0
42.63966 0
42.67299 0
42.70541 0
42.73527 0
42.76418 0
42.79751 0
42.82836 0
42.86169 0
42.89199 0
42.92182 0
42.95515 0
42.98449 0
43.0145 0
43.0435 0
43.07222 0
43.10555 0
43.13888 0
43.17221 0
43.20081 0
43.23072 0
43.26406 0
43.29396 0
43.32729 0
43.35747 0
43.38742 0
43.42075 0
43.44909 0
43.48051 0
43.5117 0
43.54504 0
43.57837 0
43.61161 0
43.63979 0
43.67138 0
43.70452 0
43.73785 0
43.76786 0
43.79869 0
43.8295 0
43.86283 0
43.89617 0
43.92588 0
43.95809 0
43.98784 0
44.01638 0
44.04971 0
44.07897 0
44.10897 0
44.13809 0
44.17142 0
44.20476 0
44.23775 0
44.26552 0
44.29885 0
44.33218 0
44.36552 0
44.39767 0
44.42741 0
44.45564 0
44.48898 0
44.52231 0
44.55564 0
44.58452 0
44.61517 0
44.64595 0
44.67929 0
44.70804 0
44.73785 0
44.76934 0
44.80267 0
44.83601 0
44.86767 0
44.89808 0
44.92837 0
44.95922 0
44.99256 0
45.02562 0
45.05896 0
45.09229 0
45.12413 0
45.15747 0
45.18842 -0.2
45.21803 -0.2
45.25136 -0.4
45.28059 -0.4
45.31393 -0.65
45.3426 -0.85
45.37212 -0.85
45.40102 -1.05
45.43138 -1.3
45.46471 -1.5
45.49805 -1.5
45.52719 -1.5
45.56007 -1.5
45.5934 -1.5
45.62674 -1.5
45.65565 -1.5
45.68634 -1.5
45.7193 -1.5
45.75057 -1.5
45.78391 -1.3
45.8171 -1.05
45.84527 -1.05
45.8749 -0.65
45.90774 -0.4
45.94107 -0.4
45.9729 -0.4
46.00604 -0.4
46.0382 -0.4
46.07153 -0.4
46.10487 -0.4
46.1382 -0.4
46.16571 -0.4
46.19712 -0.4
46.22607 -0.4
46.25941 -0.4
46.28839 -0.4
46.31892 -0.4
46.35225 -0.4
46.38559 -0.4
46.41892 -0.4
46.44942 -0.4
46.48275 -0.4
46.51295 -0.4
46.54205 -0.4
46.57538 -0.4
46.60653 -0.4
46.63987 -0.4
46.66927 -0.4
46.70066 -0.4
46.73399 -0.4
46.76402 -0.4
46.79306 -0.4
46.82259 -0.4
46.85592 -0.4
46.88925 -0.4
46.91837 -0.4
46.95105 -0.4
46.98092 -0.4
47.01197 -0.4
47.0453 -0.4
47.07863 -0.4
47.10707 -0.4
47.13827 -0.4
47.16794 -0.4
47.20127 -0.4
47.23051 -0.4
47.2609 -0.4
47.29423 -0.4
47.32526 -0.4
47.3586 -0.4
47.38912 -0.4
47.41734 -0.4
47.44947 -0.4
47.48281 -0.4
47.51614 -0.4
47.54715 -0.4
47.57663 -0.4
47.60493 -0.4
47.63628 -0.4
47.66962 -0.4
47.69965 -0.4
47.73298 -0.4
47.76364 -0.4
47.7926 -0.4
47.82593 -0.4
47.85688 -0.4
47.88677 -0.4
47.91581 -0.4
47.94915 -0.4
47.98248 -0.4
48.01323 -0.4
48.0463 -0.4
48.07624 -0.4
48.10875 -0.4
48.14208 -0.4
48.17541 -0.4
48.20581 -0.4
48.23476 -0.4
48.2655 -0.4
48.29884 -0.4
48.33217 -0.4
48.36106 -0.4
48.39051 -0.4
48.41922 -0.4
48.45256 -0.4
48.48244 -0.4
48.51577 -0.4
48.54911 -0.4
48.57904 -0.4
48.61237 -0.4
48.64275 -0.4
48.67339 -0.4
48.70288 -0.4
48.73622 -0.4
48.76955 -0.4
48.7983 -0.4
48.82964 -0.4
48.85799 -0.4
48.88987 -0.4
48.9232 -0.4
48.95654 -0.65
48.98474 -0.65
49.01498 -0.65
49.04514 -0.65
49.07848 -0.65
49.10765 -0.85
49.14098 -0.85
49.16918 -0.85
49.20014 -0.85
49.23347 -0.85
49.26245 -0.85
49.29206 -0.85
49.32288 -0.85
49.35287 -0.85
49.3862 -0.85
49.41454 -0.85
49.44788 -0.85
49.47813 -0.85
49.50863 -0.85
49.54197 -0.85
49.5723 -0.85
49.60349 -0.85
49.63683 -0.85
49.66595 -0.85
49.69929 -0.85
49.72942 -0.85
49.75888 -0.85
49.78719 -0.85
49.81662 -0.85
49.84995 -0.85
49.88026 -0.85
49.91091 -0.85
49.94123 -0.85
49.97001 -0.85
50.00334 -0.85
50.03548 -0.85
50.06491 -0.85
50.09401 -0.85
50.12649 -0.85
50.15982 -0.85
50.18996 -0.85
50.2193 -0.85
50.25264 -0.85
50.2831 -0.85
50.31643 -0.85
50.34872 -0.85
50.37892 -0.85
50.40832 -0.85
50.44165 -0.85
50.47498 -0.85
50.50491 -0.85
50.53373 -0.85
50.5643 -0.85
50.59739 -0.85
50.63072 -0.85
50.66405 -0.85
50.69495 -0.85
50.72418 -0.85
50.75635 -0.85
50.78968 -0.85
50.81925 -0.85
50.85214 -0.85
50.88097 -0.85
50.91391 -0.85
50.94724 -0.85
50.97926 -0.85
51.01213 -0.85
51.04518 -0.85
51.07851 -0.85
51.11185 -0.85
51.14228 -0.85
51.17118 -0.85
51.20094 -0.85
51.23012 -0.85
51.26345 -0.85
51.29679 -0.85
51.32685 -0.85
51.35535 -0.85
51.38549 -0.85
51.41883 -0.85
51.44928 -0.85
51.47752 -0.85
51.51086 -0.65
51.54066 -0.4
51.574 -0.4
51.60335 -0.2
51.63668 0.2
51.66685 0.2
51.69677 0.4
51.7301 0.4
51.76344 0.4
51.79677 0.4
51.82738 0.4
51.8599 0.4
51.89323 0.4
51.92246 0.4
51.95183 0.4
51.98068 0.4
52.01335 0.4
52.04668 0.4
52.07693 0.65
52.10684 0.65
52.14017 0.65
52.16951 0.65
52.20285 0.65
52.23618 0.65
52.26634 0.65
52.29522 0.65
52.32565 0.65
52.35899 0.85
52.39232 0.85
52.42493 0.85
52.45613 1.05
52.48545 1.05
52.51878 1.05
52.54789 1.3
52.57853 1.3
52.60742 1.3
52.6402 1.3
52.67353 1.3
52.70444 1.3
52.73277 1.3
52.76201 1.5
52.79259 1.7
52.82592 1.7
52.85505 1.95
52.88547 2.15
52.9188 2.15
52.94846 2.15
52.98179 2.15
53.01079 2.15
53.03938 2.15
53.07272 2.15
53.10226 2.15
53.1356 2.15
53.16404 2.15
53.19737 2.15
53.22668 2.15
53.25805 2.15
53.29139 2.15
53.32413 2.15
53.35443 2.15
53.38581 2.15
53.41623 2.15
53.44956 2.15
53.47866 2.15
53.51164 2.15
53.54326 2.15
53.57515 2.15
53.60849 2.15
53.64113 2.15
53.67105 2.15
53.70438 2.15
53.73397 2.15
53.7673 2.15
53.79619 2.15
53.8273 2.15
53.85714 2.15
53.89014 2.15
53.92347 2.15
53.95681 2.15
53.98615 2.15
54.01948 2.15
54.04762 2.15
54.08095 2.15
54.10992 2.15
54.14325 2.15
54.17579 2.15
54.2062 2.15
54.23954 2.15
54.27287 2.15
54.30277 2.15
54.33487 2.15
54.36448 2.15
54.39781 2.15
54.42633 2.15
54.45786 2.15
54.49014 2.15
54.51922 2.15
54.55255 2.15
54.58208 2.15
54.61541 2.15
54.64875 2.15
54.67776 2.15
54.71109 2.15
54.73978 2.15
54.77207 2.15
54.80094 2.15
54.83078 2.15
54.86411 2.15
54.89379 2.15
54.92712 2.15
54.95873 2.15
54.98883 2.15
55.02216 2.15
55.05045 2.15
55.0797 2.15
55.11303 2.15
55.14378 2.15
55.17712 2.15
55.20665 2.15
55.23487 2.15
55.26474 2.15
55.29451 2.15
55.32784 2.15
55.35662 2.15
55.38783 2.15
55.41643 2.15
55.44976 2.15
55.4831 2.15
55.51348 2.15
55.54214 2.15
55.57188 2.15
55.60168 2.15
55.63501 2.15
55.66388 2.15
55.69347 2.15
55.72368 2.15
55.75375 2.15
55.78708 2.15
55.81712 2.15
55.84554 2.15
55.87585 2.15
55.90549 2.15
55.93882 2.15
55.96878 2.15
55.99886 2.15
56.02758 2.15
56.05725 2.15
56.09058 2.15
56.12392 2.15
56.15092 2.15
56.18375 2.15
56.21487 2.15
56.24821 2.15
56.27849 2.15
56.30799 2.15
56.33649 2.15
56.36902 2.15
56.40235 2.15
56.43241 2.15
56.46001 2.15
56.49076 2.15
56.52013 2.15
56.55346 2.15
56.58547 2.15
56.61492 2.15
56.64382 2.15
56.67565 2.15
56.70898 2.15
56.7414 2.15
56.76917 2.15
56.79945 2.15
56.82835 2.15
56.86168 2.15
56.89454 2.15
56.92787 2.15
56.95518 2.15
56.98852 2.15
57.02185 2.15
57.052 2.15
57.08127 2.15
57.11199 2.15
57.14024 2.15
57.17357 2.15
57.20302 2.15
57.23365 2.15
57.26684 2.15
57.29812 2.15
57.33145 2.15
57.36378 2.15
57.39684 2.15
57.42615 2.15
57.45739 2.15
57.49072 2.15
57.52135 2.15
57.55228 2.15
57.58231 2.15
57.61187 2.15
57.64521 2.15
57.67854 2.15
57.71187 2.15
57.7423 2.15
57.77094 2.15
57.80427 2.15
57.8368 2.15
57.86834 2.15
57.89654 2.15
57.92634 2.15
57.95967 2.15
57.98939 2.15
58.01987 2.15
58.05117 2.15
58.08042 2.15
58.11375 2.15
58.1425 2.15
58.17583 2.15
58.2066 2.15
58.23628 2.15
58.26961 2.15
58.29969 2.15
58.3303 2.15
58.36363 2.15
58.39696 2.15
58.43029 2.15
58.46363 2.15
58.49434 2.15
58.52294 2.15
58.55561 2.15
58.58894 2.15
58.61985 2.15
58.6502 2.15
58.68166 2.15
58.715 2.15
58.74833 2.15
58.7764 2.15
58.80973 2.15
58.83879 2.15
58.87213 2.15
58.90546 2.15
58.93535 2.15
58.96739 2.15
59.00072 2.15
59.03277 2.15
59.0661 2.15
59.09711 2.15
59.12741 2.15
59.16075 2.15
59.19113 2.15
59.22446 2.15
59.2577 2.15
59.29075 2.15
59.32097 2.15
59.35078 2.15
59.38411 2.15
59.41628 2.15
59.44962 2.15
59.48264 2.15
59.51253 2.15
59.54586 2.15
59.57919 2.15
59.6092 2.15
59.64102 2.15
59.67435 2.15
59.70768 2.15
59.73596 2.15
59.76516 2.15
59.79821 2.15
59.8282 2.15
59.86153 2.15
59.89133 2.15
59.92157 2.15
59.9512 2.15
59.98237 2.15
60.01571 2.15
60.04904 2.15
60.07897 2.15
60.11169 2.15
60.14254 2.15
60.17587 2.15
60.20835 2.15
60.24169 2.15
60.27221 2.15
60.30402 2.15
60.33735 2.15
60.36793 2.15
60.40123 2.15
60.43357 2.15
60.46628 2.15
60.49962 2.15
60.53295 2.15
60.56242 2.15
60.59302 2.15
60.62233 2.15
60.65566 2.15
60.68489 2.15
60.71823 2.15
60.75068 2.15
60.78401 2.15
60.81734 2.15
60.84692 2.15
60.87943 2.15
60.90961 2.15
60.93982 2.15
60.97315 2.15
61.00649 2.15
61.03657 2.15
61.0699 2.15
61.10324 2.15
61.13657 2.15
61.166 2.15
61.19882 2.15
61.23116 2.15
61.26139 2.15
61.29473 2.15
61.32662 2.15
61.35791 2.15
61.39032 2.15
61.42088 2.15
61.45421 2.15
61.48573 2.15
61.51709 2.15
61.55043 2.15
61.57892 2.15
61.61226 2.15
61.64234 2.15
61.67474 2.15
61.7038 2.15
61.73713 2.15
61.77046 2.15
61.80172 2.15
61.83176 2.15
61.86509 2.15
61.89421 2.15
61.92754 2.15
61.95695 2.15
61.99029 2.15
62.0182 2.15
62.04861 2.15
62.08195 2.15
62.11307 2.15
62.14142 2.15
62.17361 2.15
62.20563 2.15
62.23896 2.15
62.27063 2.15
62.30173 2.15
62.33 2.15
62.3624 2.15
62.39574 2.15
62.42634 2.15
62.45714 2.15
62.49047 2.15
62.52294 2.15
62.55627 2.15
62.58534 2.15
62.61555 2.15
62.64613 2.15
62.67596 2.15
62.70929 2.15
62.74075 2.15
62.77403 2.15
62.80452 2.15
62.83785 2.15
62.87119 2.15
62.90021 2.15
62.93076 2.15
62.95938 2.15
62.99081 2.15
63.02415 2.15
63.05418 2.15
63.08611 2.15
63.11787 2.15
63.14995 2.15
63.18328 2.15
63.21242 2.15
63.24346 2.15
63.27311 2.15
63.30622 2.15
63.33955 2.15
63.37203 2.15
63.40076 2.15
63.43409 2.15
63.46371 2.15
63.49704 2.15
63.52608 2.15
63.55941 2.15
63.59043 2.15
63.62144 2.15
63.65477 2.15
63.68644 2.15
63.71976 2.15
63.75032 2.15
63.78271 2.15
63.81605 2.15
63.84459 2.15
63.8768 2.15
63.90823 2.15
63.93931 2.15
63.97264 2.15
64.003 2.15
64.03153 2.15
64.06329 2.15
64.09268 2.15
64.12601 2.15
64.15655 2.15
64.18738 2.15
64.22071 2.15
64.25018 2.15
64.28351 2.15
64.31684 2.15
64.34621 2.15
64.37647 2.15
64.40738 2.15
64.44071 2.15
64.47305 2.15
64.50638 2.15
64.53648 2.15
64.56728 2.15
64.60062 2.15
64.63216 2.15
64.66148 2.15
64.69118 2.15
64.71999 2.15
64.75332 2.15
64.78418 2.15
64.81404 2.15
64.84281 2.15
64.87263 2.15
64.90597 2.15
64.9393 2.15
64.96883 2.15
64.99883 2.15
65.02929 2.15
65.06262 2.15
65.09012 2.15
65.12345 2.15
65.15374 2.15
65.18462 2.15
65.21796 2.15
65.2487 2.15
65.28204 2.15
65.31241 2.15
65.34109 2.15
65.37443 2.15
65.40617 2.15
65.43623 2.15
65.46605 2.15
65.4984 2.15
65.53173 2.15
65.56265 2.15
65.59394 2.15
65.62728 2.15
65.65663 2.15
65.68996 2.15
65.7233 2.15
65.75501 2.15
65.78835 2.15
65.8194 2.15
65.85275 2.15
65.88593 2.15
65.91927 2.15
65.94894 2.15
65.98007 2.15
66.0134 2.15
66.04675 2.15
66.07856 2.15
66.11082 2.15
66.1404 2.15
66.17374 2.15
66.20274 2.15
66.23174 2.15
66.26239 2.15
66.2928 2.15
66.32613 2.15
66.35508 2.15
66.38489 2.15
66.41636 2.15
66.44799 2.15
66.48132 2.15
66.51418 2.15
66.54258 2.15
66.57545 2.15
66.60623 2.15
66.63956 2.15
66.6729 2.15
66.70211 2.15
66.7312 2.15
66.76174 2.15
66.79507 2.15
66.82841 2.15
66.86051 2.15
66.89384 2.15
66.92323 2.15
66.95656 2.15
66.98491 2.15
67.0145 2.15
67.0446 2.15
67.07793 2.15
67.11127 2.15
67.1446 2.15
67.17402 2.15
67.20735 2.15
67.23914 2.15
67.27247 2.15
67.30133 2.15
67.33192 2.15
67.36021 2.15
67.39064 2.15
67.42397 2.15
67.45414 2.15
67.48274 2.15
67.5127 2.15
67.54196 2.15
67.57529 2.15
67.60786 2.15
67.63921 2.15
67.66795 2.15
67.69813 2.15
67.73146 2.15
67.76096 2.15
67.79186 2.15
67.82169 2.15
67.85318 2.15
67.88651 2.15
67.91532 2.15
67.9453 2.15
67.97398 2.15
68.00494 2.15
68.03828 2.15
68.06784 2.15
68.10117 2.15
68.13365 2.15
68.16264 2.15
68.19597 2.15
68.22878 2.15
68.25901 2.15
68.29056 2.15
68.321 2.15
68.35433 2.15
68.38766 2.15
68.41783 2.15
68.44954 2.15
68.48287 2.15
68.5162 2.15
68.54734 2.15
68.57925 2.15
68.61259 2.15
68.64252 2.15
68.67585 2.15
68.70748 2.15
68.7364 2.15
68.76637 2.15
68.79559 2.15
68.82893 2.15
68.8574 2.15
68.88731 2.15
68.91721 2.15
68.94855 2.15
68.98189 2.15
69.01183 2.15
69.04034 2.15
69.06987 2.15
69.10066 2.15
69.134 2.15
69.16273 2.15
69.19257 2.15
69.22346 2.15
69.25404 2.15
69.28738 2.15
69.31685 2.15
69.34637 2.15
69.3769 2.15
69.40623 2.15
69.43956 2.15
69.46905 2.15
69.49918 2.15
69.52789 2.15
69.56122 2.15
69.59455 2.15
69.62483 2.15
69.65357 2.15
69.68542 2.15
69.71571 2.15
69.74904 2.15
69.78165 2.15
69.81498 2.15
69.8443 2.15
69.87567 2.15
69.90901 2.15
69.93952 2.15
69.96901 2.15
70.00088 2.15
70.03421 2.15
70.06754 2.15
70.10088 2.15
70.13421 2.15
70.16289 2.15
70.19622 2.15
70.22955 2.15
70.25975 2.15
70.2888 2.15
70.31933 2.15
70.34843 2.15
70.38177 2.15
70.41161 2.15
70.44238 2.15
70.47239 2.15
70.50572 2.15
70.53905 2.15
70.56927 2.15
70.59811 2.15
70.62999 2.15
70.6598 2.15
70.69313 2.15
70.7235 2.15
70.75444 2.15
70.78777 2.15
70.81856 2.15
70.85189 2.15
70.88215 2.15
70.91222 2.15
70.94362 2.15
70.97695 2.15
71.01028 2.15
71.04078 2.15
71.07114 2.15
71.10214 2.15
71.13472 2.15
71.16806 2.15
71.19865 2.15
71.22866 2.15
71.26088 2.15
71.29421 2.15
71.32755 2.15
71.35634 2.15
71.38602 2.15
71.41537 2.15
71.44676 2.15
71.48009 2.15
71.51343 2.15
71.54676 2.15
71.57718 2.15
71.61051 2.15
71.64384 2.15
71.67425 2.15
71.70417 2.15
71.73602 2.15
71.76785 2.15
71.80118 2.15
71.83157 2.15
71.86405 2.15
71.89502 2.15
71.92595 2.15
71.95928 2.15
71.99261 2.15
72.02293 2.15
72.05626 2.15
72.08626 2.15
72.11959 2.15
72.15142 2.15
72.18187 2.15
72.2122 2.15
72.24554 2.15
72.27887 2.15
72.3122 2.15
72.34482 2.15
72.37617 2.15
72.4081 2.15
72.44144 2.15
72.47477 2.15
72.50549 2.15
72.53602 2.15
72.56628 2.15
72.59962 2.15
72.62989 2.15
72.66032 2.15
72.69366 2.15
72.72699 2.15
72.76032 2.15
72.79366 2.15
72.82686 2.15
72.8578 2.15
72.88902 2.15
72.92235 2.15
72.9518 2.15
72.98513 2.15
73.01453 2.15
73.04786 2.15
73.08119 2.15
73.11104 2.15
73.14346 2.15
73.17679 2.15
73.20722 2.15
73.24055 2.15
73.27389 2.15
73.3059 2.15
73.33582 2.15
73.36784 2.15
73.40117 2.15
73.4345 2.15
73.46324 2.15
73.49376 2.15
73.52709 2.15
73.56042 2.15
73.59306 2.15
73.62621 2.15
73.65828 2.15
73.69161 2.15
73.72495 2.15
73.75655 2.15
73.78631 2.15
73.81644 2.15
73.84977 2.15
73.88311 2.15
73.91287 2.15
73.94467 2.15
73.97365 2.15
74.00488 2.15
74.03822 2.15
74.07054 2.15
74.10164 2.15
74.13256 2.15
74.16174 2.15
74.19507 2.15
74.2284 2.15
74.26173 2.15
74.29344 2.15
74.32423 2.15
74.35757 2.15
74.38808 2.15
74.41682 2.15
74.44639 2.15
74.47577 2.15
74.5091 2.15
74.5418 2.15
74.57438 2.15
74.60371 2.15
74.63589 2.15
74.66922 2.15
74.70146 2.15
74.73478 2.15
74.76665 2.15
74.79998 2.15
74.83331 2.15
74.86234 2.15
74.89568 2.15
74.92819 2.15
74.96152 2.15
74.99486 2.15
75.02812 2.15
75.05927 2.15
75.0893 2.15
75.12047 2.15
75.1538 2.15
75.18142 2.15
75.21475 2.15
75.24671 2.15
75.28004 2.15
75.31339 2.15
75.34672 2.15
75.37884 2.15
75.40898 2.15
75.44176 2.15
75.47509 2.15
75.50585 2.15
75.53675 2.15
75.56989 2.15
75.60018 2.15
75.63351 2.15
75.6639 2.15
75.69378 2.15
75.72543 2.15
75.75813 2.15
75.79146 2.15
75.82133 2.15
75.8516 2.15
75.88022 2.15
75.91355 2.15
75.94688 2.15
75.97846 2.15
76.01179 2.15
76.04232 2.15
76.07182 2.15
76.10516 2.15
76.13849 2.15
76.16844 2.15
76.19699 2.15
76.23022 2.15
76.26356 2.15
76.29466 2.15
76.32272 2.15
76.35468 2.15
76.38405 2.15
76.41738 2.15
76.44691 2.15
76.47756 2.15
76.50934 2.15
76.54267 2.15
76.576 2.15
76.60795 2.15
76.63818 2.15
76.66821 2.15
76.70116 2.15
76.7345 2.15
76.76637 2.15
76.79971 2.15
76.83045 2.15
76.86259 2.15
76.89593 2.15
76.92926 2.15
76.95867 2.15
76.99093 2.15
77.02101 2.15
77.05434 2.15
77.08449 2.15
77.11431 2.15
77.14303 2.15
77.176 2.15
77.20934 2.15
77.23985 2.15
77.27071 2.15
77.30404 2.15
77.33258 2.15
77.36591 2.15
77.39422 2.15
77.42755 2.15
77.45853 2.15
77.48974 2.15
77.52307 2.15
77.55408 2.15
77.58559 2.15
77.61653 2.15
77.64598 2.15
77.67931 2.15
77.70786 2.15
77.73891 2.15
77.76796 2.15
77.80011 2.15
77.83344 2.15
77.86353 2.15
77.89246 2.15
77.92358 2.15
77.9524 2.15
77.98573 2.15
78.01526 2.15
78.04818 2.15
78.0787 2.15
78.11204 2.15
78.14537 2.15
78.17536 2.15
78.20692 2.15
78.23757 2.15
78.26792 2.15
78.30125 2.15
78.33051 2.15
78.36117 2.15
78.39286 2.15
78.42611 2.15
78.45944 2.15
78.48914 2.15
78.51753 2.15
78.54752 2.15
78.57759 2.15
78.61092 2.15
78.64018 2.15
78.66985 2.15
78.6982 2.15
78.72881 2.15
78.76214 2.15
78.79288 2.15
78.82166 2.15
78.85499 2.15
78.88741 2.15
78.92075 2.15
78.95408 2.15
78.98741 2.15
79.0169 2.15
79.04942 2.15
79.08275 2.15
79.11608 2.15
79.1476 2.15
79.18037 2.15
79.21344 2.15
79.24677 2.15
79.27484 2.15
79.30692 2.15
79.33904 2.15
79.37238 2.15
79.40571 2.15
79.43832 2.15
79.47063 2.15
79.50396 2.15
79.53729 2.15
79.57063 2.15
79.60354 2.15
79.63687 2.15
79.66485 2.15
79.69818 2.15
79.73151 2.15
79.76209 2.15
79.79088 2.15
79.82282 2.15
79.85616 2.15
79.88949 2.15
79.92282 2.15
79.95446 2.15
79.98492 2.15
80.01631 2.15
80.04964 2.15
80.08207 2.15
80.11211 2.15
80.14118 2.15
80.17179 2.15
80.20513 2.15
80.23597 2.15
80.2693 2.15
80.30264 2.15
80.33597 2.15
80.3693 2.15
80.40052 2.15
80.43385 2.15
80.46719 2.15
80.49662 2.15
80.52995 2.15
80.55815 2.15
80.59148 2.15
80.62058 2.15
80.65047 2.15
80.6838 2.15
80.71378 2.15
80.74245 2.15
80.77579 2.15
80.80751 2.15
80.84084 2.15
80.87418 2.15
80.90751 2.15
80.93762 2.15
80.9689 2.15
81.00224 2.15
81.035 2.15
81.06376 2.15
81.0933 2.15
81.12563 2.15
81.15897 2.15
81.18966 2.15
81.22028 2.15
81.25145 2.15
81.28094 2.15
81.31427 2.15
81.34435 2.15
81.37643 2.15
81.40697 2.15
81.4364 2.15
81.46974 2.15
81.49895 2.15
81.52868 2.15
81.55883 2.15
81.59026 2.15
81.6236 2.15
81.65693 2.15
81.68733 2.15
81.7169 2.15
81.74686 2.15
81.7802 2.15
81.80884 2.15
81.83861 2.15
81.86895 2.15
81.90141 2.15
81.93474 2.15
81.96703 2.15
81.99773 2.15
82.03049 2.15
82.06322 2.15
82.09656 2.15
82.12481 2.15
82.15679 2.15
82.19012 2.15
82.22346 2.15
82.25679 2.15
82.28833 2.15
82.31681 2.15
82.34664 2.15
82.37729 2.15
82.41062 2.15
82.4393 2.15
82.46904 2.15
82.49911 2.15
82.52973 2.15
82.56306 2.15
82.59552 2.15
82.62379 2.15
82.65712 2.15
82.68498 2.15
82.71832 2.15
82.7472 2.15
82.7776 2.15
82.81094 2.15
82.84131 2.15
82.87464 2.15
82.90797 2.15
82.94028 2.15
82.97363 2.15
83.00107 2.15
83.0344 2.15
83.0628 2.15
83.09544 2.15
83.12402 2.15
83.15303 2.15
83.18636 2.15
83.21554 2.15
83.24523 2.15
83.27518 2.15
83.30417 2.15
83.3375 2.15
83.36772 2.15
83.39757 2.15
83.42825 2.15
83.46159 2.15
83.49492 2.15
83.52563 2.15
83.55318 2.15
83.58523 2.15
83.61363 2.15
83.64697 2.15
83.67525 2.15
83.70653 2.15
83.73582 2.15
83.76915 2.15
83.80248 2.15
83.83361 2.15
83.86337 2.15
83.89365 2.15
83.92591 2.15
83.95924 2.15
83.9882 2.15
84.01813 2.15
84.04623 2.15
84.07957 2.15
84.11291 2.15
84.14624 2.15
84.17632 2.15
84.20905 2.15
84.24239 2.15
84.27572 2.15
84.30512 2.15
84.33483 2.15
84.3641 2.15
84.39743 2.15
84.43076 2.15
84.46065 2.15
84.4914 2.15
84.52126 2.15
84.55095 2.15
84.58428 2.15
84.61288 2.15
84.64307 2.15
84.6723 2.15
84.70564 2.15
84.73898 2.15
84.77231 2.15
84.80119 2.15
84.83107 2.15
84.86007 2.15
84.8934 2.15
84.92358 2.15
84.95692 2.15
84.98542 2.15
85.01875 2.15
85.05209 2.15
85.08241 2.15
85.11147 2.15
85.1448 2.15
85.17737 2.15
85.2107 2.15
85.24057 2.15
85.27386 2.15
85.30714 2.15
85.33806 2.15
85.37139 2.15
85.40131 2.15
85.43267 2.15
85.46445 2.15
85.49596 2.15
85.52929 2.15
85.5584 2.15
85.59017 2.15
85.61929 2.15
85.65263 2.15
85.68597 2.15
85.7193 2.15
85.74829 2.15
85.77937 2.15
85.81102 2.15
85.84435 2.15
85.87392 2.15
85.90726 2.15
85.93608 2.15
85.96941 2.15
86.00275 2.15
86.03318 2.15
86.06651 2.15
86.09702 2.15
86.12746 2.15
86.1608 2.15
86.19096 2.15
86.22382 2.15
86.25469 2.15
86.28677 2.15
86.32011 2.15
86.35344 2.15
86.38255 2.15
86.41282 2.15
86.44236 2.15
86.47569 2.15
86.50478 2.15
86.53758 2.15
86.57092 2.15
86.6011 2.15
86.63444 2.15
86.66532 2.15
86.69865 2.15
86.73199 2.15
86.76138 2.15
86.79472 2.15
86.8249 2.15
86.85478 2.15
86.88312 2.15
86.91645 2.15
86.94978 2.15
86.98 2.15
87.009 2.15
87.04116 2.15
87.07079 2.15
87.10413 2.15
87.13376 2.15
87.16674 2.15
87.20007 2.15
87.23207 2.15
87.2654 2.15
87.29618 2.15
87.32951 2.15
87.36285 2.15
87.39269 2.15
87.42603 2.15
87.45936 2.15
87.48939 2.15
87.51842 2.15
87.5493 2.15
87.58263 2.15
87.61597 2.15
87.64583 2.15
87.67629 2.15
87.7063 2.15
87.73963 2.15
87.76861 2.15
87.79963 2.15
87.83296 2.15
87.86629 2.15
87.89963 2.15
87.93158 2.15
87.96263 2.15
87.99596 2.15
88.02495 2.15
88.05829 2.15
88.0892 2.15
88.11929 2.15
88.14957 2.15
88.17973 2.15
88.21306 2.15
88.24639 2.15
88.27425 2.15
88.30412 2.15
88.33488 2.15
88.36822 2.15
88.39816 2.15
88.4315 2.15
88.46483 2.15
88.49525 2.15
88.52859 2.15
88.56192 2.15
88.59404 2.15
88.62389 2.15
88.65288 2.15
88.68621 2.15
88.71597 2.15
88.74795 2.15
88.78128 2.15
88.81179 2.15
88.84512 2.15
88.87479 2.15
88.90345 2.15
88.93652 2.15
88.96574 2.15
88.99908 2.15
89.02974 2.15
89.06004 2.15
89.09008 2.15
89.12341 2.15
89.15675 2.15
89.18705 2.15
89.2177 2.15
89.25104 2.15
89.28437 2.15
89.3177 2.15
89.34714 2.15
89.38047 2.15
89.4111 2.15
89.44444 2.15
89.47777 2.15
89.51099 2.15
89.54433 2.15
89.57433 2.15
89.6032 2.15
89.63653 2.15
89.66625 2.15
89.69959 2.15
89.72844 2.15
89.75867 2.15
89.792 2.15
89.82319 2.15
89.85385 2.15
89.8863 2.15
89.91757 2.15
89.9509 2.15
89.98265 2.15
90.01599 2.15
90.04507 2.15
90.07751 2.15
90.11084 2.15
90.14374 2.15
90.17707 2.15
90.2077 2.15
90.23714 2.15
90.27047 2.15
90.30381 2.15
90.33662 2.15
90.36995 2.15
90.40005 2.15
90.43339 2.15
90.46386 2.15
90.49719 2.15
90.52735 2.15
90.56068 2.15
90.59402 2.15
90.62459 2.15
90.65792 2.15
90.69016 2.15
90.72337 2.15
90.7567 2.15
90.78922 2.15
90.81987 2.15
90.8532 2.15
90.8814 2.15
90.91473 2.15
90.94807 2.15
90.97843 2.15
91.00743 2.15
91.03806 2.15
91.07139 2.15
91.1028 2.15
91.13466 2.15
91.16576 2.15
91.1978 2.15
91.23113 2.15
91.2643 2.15
91.2952 2.15
91.32505 2.15
91.35564 2.15
91.38897 2.15
91.41945 2.15
91.45013 2.15
91.48346 2.15
91.51679 2.15
91.55013 2.15
91.57977 2.15
91.6131 2.15
91.64481 2.15
91.67521 2.15
91.70854 2.15
91.74187 2.15
91.77257 2.15
91.80499 2.15
91.83828 2.15
91.87161 2.15
91.90047 2.15
91.93034 2.15
91.96068 2.15
91.99401 2.15
92.02734 2.15
92.06068 2.15
92.08917 2.15
92.11928 2.15
92.15117 2.15
92.18451 2.15
92.21784 2.15
92.24786 2.15
92.27946 2.15
92.31148 2.15
92.34481 2.15
92.3771 2.15
92.40636 2.15
92.43642 2.15
92.46663 2.15
92.49996 2.15
92.52818 2.15
92.56055 2.15
92.58927 2.15
92.62009 2.15
92.65343 2.15
92.68338 2.15
92.71242 2.15
92.74402 2.15
92.77688 2.15
92.81021 2.15
92.84354 2.15
92.87466 2.15
92.90472 2.15
92.93788 2.15
92.97121 2.15
93.00455 2.15
93.03788 2.15
93.07121 2.15
93.10172 2.15
93.13506 2.15
93.16455 2.15
93.19556 2.15
93.22456 2.15
93.25789 2.15
93.29122 2.15
93.3237 2.15
93.3529 2.15
93.38359 2.15
93.4142 2.15
93.44753 2.15
93.47618 2.15
93.50951 2.15
93.53879 2.15
93.5702 2.15
93.60353 2.15
93.63686 2.15
93.66533 2.15
93.69651 2.15
93.72625 2.15
93.75958 2.15
93.79292 2.15
93.82315 2.15
93.85587 2.15
93.88689 2.15
93.92023 2.15
93.95083 2.15
93.97972 2.15
94.01199 2.15
94.04344 2.15
94.07677 2.15
94.1071 2.15
94.13812 2.15
94.17078 2.15
94.20235 2.15
94.23569 2.15
94.26527 2.15
94.29819 2.15
94.32991 2.15
94.36087 2.15
94.3942 2.15
94.42754 2.15
94.46087 2.15
94.49108 2.15
94.52207 2.15
94.5554 2.15
94.58861 2.15
94.61925 2.15
94.65258 2.15
94.68439 2.15
94.71772 2.15
94.75036 2.15
94.78254 2.15
94.81566 2.15
94.84599 2.15
94.87932 2.15
94.90925 2.15
94.94258 2.15
94.97591 2.15
95.00909 2.15
95.04242 2.15
95.0718 2.15
95.10228 2.15
95.13119 2.15
95.16367 2.15
95.197 2.15
95.23033 2.15
95.26366 2.15
95.29369 2.15
95.32268 2.15
95.35601 2.15
95.38549 2.15
95.41882 2.15
95.45216 2.15
95.48405 2.15
95.5174 2.15
95.55073 2.15
95.58 2.15
95.61333 2.15
95.64362 2.15
95.67695 2.15
95.70819 2.15
95.74152 2.15
95.77103 2.15
95.80122 2.15
95.83456 2.15
95.86789 2.15
95.89603 2.15
95.92815 2.15
95.95699 2.15
95.99032 2.15
96.01976 2.15
96.0531 2.15
96.08643 2.15
96.11913 2.15
96.15247 2.15
96.1858 2.15
96.21419 2.15
96.24543 2.15
96.27541 2.15
96.30875 2.15
96.34174 2.15
96.37234 2.15
96.40244 2.15
96.4339 2.15
96.46723 2.15
96.50021 2.15
96.53354 2.15
96.56687 2.15
96.59872 2.15
96.63205 2.15
96.66538 2.15
96.69872 2.15
96.72833 2.15
96.75838 2.15
96.79171 2.15
96.82162 2.15
96.85084 2.15
96.88206 2.15
96.91172 2.15
96.94505 2.15
96.97555 2.15
97.00888 2.15
97.03796 2.15
97.07096 2.15
97.10429 2.15
97.13763 2.15
97.16768 2.15
97.20101 2.15
97.23193 2.15
97.26526 2.15
97.29607 2.15
97.32646 2.15
97.35799 2.15
97.3886 2.15
97.42194 2.15
97.45527 2.15
97.48746 2.15
97.51845 2.15
97.55009 2.15
97.58343 2.15
97.61676 2.15
97.64776 2.15
97.67732 2.15
97.71 2.15
97.74333 2.15
97.77498 2.15
97.80341 2.15
97.83675 2.15
97.86588 2.15
97.89922 2.15
97.92863 2.15
97.95977 2.15
97.9931 2.15
98.02435 2.15
98.05768 2.15
98.08822 2.15
98.11734 2.15
98.14815 2.15
98.17885 2.15
98.21218 2.15
98.24551 2.15
98.27513 2.15
98.30616 2.15
98.33836 2.15
98.37169 2.15
98.4015 2.15
98.43484 2.15
98.46564 2.15
98.49689 2.15
98.53024 2.15
98.56001 2.15
98.58994 2.15
98.62179 2.15
98.65512 2.15
98.68846 2.15
98.72179 2.15
98.75513 2.15
98.78484 2.15
98.81503 2.15
98.84836 2.15
98.88169 2.15
98.91187 2.15
98.94064 2.15
98.97136 2.15
99.00469 2.15
99.03802 2.15
99.06579 2.15
99.09912 2.15
99.13 2.15
99.16334 2.15
99.19339 2.15
99.22672 2.15
99.25564 2.15
99.28897 2.15
99.3223 2.15
99.35368 2.15
99.38347 2.15
99.41422 2.15
99.44682 2.15
99.48016 2.15
99.50881 2.15
99.54214 2.15
99.57548 2.15
99.60566 2.15
99.63899 2.15
99.67233 2.15
99.70163 2.15
99.73496 2.15
99.7683 2.15
99.80163 2.15
99.83149 2.15
99.86398 2.15
99.8932 2.15
99.92618 2.15
99.95951 2.15
99.99284 2.15
100.022 2.15
100.0521 2.15
100.0809 2.15
100.1143 2.15
100.1476 2.15
100.1807 2.15
100.2126 2.15
100.2431 2.15
100.2764 2.15
100.3081 2.15
100.3384 2.15
100.3715 2.15
100.4041 2.15
100.4374 2.15
100.4661 2.15
100.498 2.15
100.5288 2.15
100.5614 2.15
100.5947 2.15
100.625 2.15
100.655 2.15
100.6883 2.15
100.7217 2.15
100.755 2.15
100.7868 2.15
100.8182 2.15
100.8477 2.15
100.8803 2.15
100.9136 2.15
100.947 2.15
100.9758 2.15
101.0091 2.15
101.0393 2.15
101.0726 2.15
101.1059 2.15
101.1393 2.15
101.1685 2.15
101.1999 2.15
101.2333 2.15
101.2666 2.15
101.2965 2.15
101.3265 2.15
101.3586 2.15
101.3919 2.15
101.4242 2.15
101.4568 2.15
101.4874 2.15
101.5207 2.15
101.554 2.15
101.5874 2.15
101.6207 2.15
101.6508 2.15
101.6829 2.15
101.7162 2.15
101.7465 2.15
101.7773 2.15
101.8067 2.15
101.837 2.15
101.8704 2.15
101.9025 2.15
101.9358 2.15
101.9665 2.15
101.9959 2.15
102.0293 2.15
102.0594 2.15
102.0928 2.15
102.1218 2.15
102.1547 2.15
102.188 2.15
102.2194 2.15
102.2517 2.15
102.2831 2.15
102.3148 2.15
102.3481 2.15
102.3774 2.15
102.4107 2.15
102.4414 2.15
102.4747 2.15
102.5081 2.15
102.5379 2.15
102.5678 2.15
102.5983 2.15
102.6288 2.15
102.6621 2.15
102.691 2.15
102.7223 2.15
102.7557 2.15
102.789 2.15
102.8223 2.15
102.8546 2.15
102.8843 2.15
102.9151 2.15
102.9485 2.15
102.9818 2.15
103.0117 2.15
103.0427 2.15
103.0722 2.15
103.1055 2.15
103.1388 2.15
103.1721 2.15
103.2023 2.15
103.2347 2.15
103.268 2.15
103.3013 2.15
103.3298 2.15
103.3632 2.15
103.3965 2.15
103.4298 2.15
103.4632 2.15
103.4965 2.15
103.5298 2.15
103.5629 2.15
103.5962 2.15
103.6295 2.15
103.6629 2.15
103.695 2.15
103.7267 2.15
103.7601 2.15
103.7934 2.15
103.8249 2.15
103.8582 2.15
103.8877 2.15
103.921 2.15
103.9544 2.15
103.9877 2.15
104.0197 2.15
104.0506 2.15
104.0839 2.15
104.1173 2.15
104.1495 2.15
104.1828 2.15
104.2126 2.15
104.242 2.15
104.2753 2.15
104.3046 2.15
104.3367 2.15
104.366 2.15
104.3956 2.15
104.4289 2.15
104.459 2.15
104.4907 2.15
104.5222 2.15
104.5517 2.15
104.585 2.15
104.617 2.15
104.6503 2.15
104.6785 2.15
104.7114 2.15
104.7448 2.15
104.7763 2.15
104.8059 2.15
104.8358 2.15
104.8691 2.15
104.9024 2.15
104.9333 2.15
104.9633 2.15
104.9921 2.15
105.0242 2.15
105.0575 2.15
105.0908 2.15
105.1242 2.15
105.1575 2.15
105.1879 2.15
105.2212 2.15
105.2499 2.15
105.2813 2.15
105.3106 2.15
105.3427 2.15
105.3761 2.15
105.4094 2.15
105.4386 2.15
105.4716 2.15
105.5048 2.15
105.5382 2.15
105.5715 2.15
105.6048 2.15
105.6382 2.15
105.6715 2.15
105.7015 2.15
105.7348 2.15
105.7681 2.15
105.8015 2.15
105.8348 2.15
105.8681 2.15
105.8977 2.15
105.9287 2.15
105.9581 2.15
105.9914 2.15
106.0218 2.15
106.0535 2.15
106.0821 2.15
106.1155 2.15
106.1488 2.15
106.1821 2.15
106.2131 2.15
106.2464 2.15
106.2783 2.15
106.3116 2.15
106.3435 2.15
106.3768 2.15
106.4101 2.15
106.4409 2.15
106.4742 2.15
106.5075 2.15
106.537 2.15
106.5704 2.15
106.6035 2.15
106.6368 2.15
106.6658 2.15
106.6992 2.15
106.7293 2.15
106.762 2.15
106.7953 2.15
106.8287 2.15
106.862 2.15
106.8925 2.15
106.9215 2.15
106.9548 2.15
106.9855 2.15
107.0157 2.15
107.0451 2.15
107.0784 2.15
107.1118 2.15
107.1415 2.15
107.1743 2.15
107.2072 2.15
107.2366 2.15
107.2699 2.15
107.3032 2.15
107.3366 2.15
107.3699 2.15
107.4032 2.15
107.4344 2.15
107.4656 2.15
107.4963 2.15
107.5296 2.15
107.563 2.15
107.5939 2.15
107.6271 2.15
107.659 2.15
107.6919 2.15
107.7252 2.15
107.7553 2.15
107.7886 2.15
107.8173 2.15
107.8482 2.15
107.8815 2.15
107.9105 2.15
107.9411 2.15
107.9714 2.15
108.0048 2.15
108.0381 2.15
108.0681 2.15
108.0977 2.15
108.13 2.15
108.1599 2.15
108.1933 2.15
108.2266 2.15
108.2599 2.15
108.2908 2.15
108.3241 2.15
108.3557 2.15
108.389 2.15
108.4184 2.15
108.4473 2.15
108.4806 2.15
108.514 2.15
108.5473 2.15
108.5794 2.15
108.6104 2.15
108.6437 2.15
108.6735 2.15
108.7042 2.15
108.7376 2.15
108.7709 2.15
108.8043 2.15
108.8349 2.15
108.8682 2.15
108.9013 2.15
108.9347 2.15
108.968 2.15
109.0013 2.15
109.0304 2.15
109.0637 2.15
109.0957 2.15
109.129 2.15
109.1624 2.15
109.1925 2.15
109.2222 2.15
109.2555 2.15
109.2889 2.15
109.3193 2.15
109.3501 2.15
109.3814 2.15
109.4118 2.15
109.4451 2.15
109.4753 2.15
109.5086 2.15
109.5399 2.15
109.5732 2.15
109.6065 2.15
109.6372 2.15
109.6706 2.15
109.7026 2.15
109.733 2.15
109.7664 2.15
109.7957 2.15
109.8257 2.15
109.855 2.15
109.8851 2.15
109.9185 2.15
109.9518 2.15
109.982 2.15
110.0153 2.15
110.048 2.15
110.0813 2.15
110.1103 1.95
110.1422 1.7
110.1713 1.7
110.2018 1.7
110.2352 1.7
110.2685 1.7
110.2976 1.5
110.3309 1.5
110.3643 1.5
110.3976 1.3
110.4289 1.05
110.4605 1.05
110.4938 0.65
110.5246 -0.85
110.5579 -0.85
110.5888 -1.7
110.6187 -2.4
110.652 -2.4
110.6839 -2.8
110.7172 -3.05
110.7505 -3.05
110.7805 -3.45
110.8138 -4.15
110.846 -4.15
110.8793 -5
110.9127 -6.55
110.946 -6.55
110.9773 -8.3
111.0106 -9.6
111.044 -9.6
111.0773 -10.45
111.1082 -10.7
111.137 -10.7
111.1671 -10.7
111.2004 -10.7
111.2334 -10.7
111.2667 -10.7
111.3001 -10.7
111.3334 -10.7
111.3667 -10.7
111.3993 -10.7
111.4297 -10.7
111.46 -10.7
111.4934 -11.1
111.5267 -11.1
111.5571 -11.75
111.586 -12.45
111.6164 -12.45
111.6454 -13.1
111.6788 -13.5
111.7079 -13.5
111.7412 -13.5
111.7731 -13.5
111.8032 -13.5
111.8365 -13.5
111.8694 -13.5
111.9027 -13.5
111.9352 -13.5
111.9686 -13.5
112.0019 -13.5
112.0306 -13.5
112.0612 -13.5
112.0905 -13.5
112.1203 -13.5
112.1536 -13.5
112.1858 -13.5
112.2192 -13.5
112.2497 -13.5
112.283 -13.5
112.3163 -13.5
112.3496 -13.5
112.38 -13.5
112.4096 -13.3
112.443 -13.1
112.4763 -13.1
112.5097 -13.1
112.5423 -12.85
112.5723 -12.85
112.6049 -12.65
112.6383 -12.65
112.6695 -12.65
112.7028 -12.45
112.7362 -12.45
112.7675 -12.45
112.8008 -12.45
112.8325 -12.45
112.8641 -12.45
112.8956 -12.45
112.9289 -12.45
112.9622 -12.45
112.9949 -12.45
113.0248 -12.45
113.054 -12.45
113.0852 -12.45
113.1185 -12.45
113.1504 -12.45
113.1791 -12.45
113.2124 -12.45
113.2457 -12.45
113.2791 -12.45
113.3103 -12.2
113.3432 -12.2
113.3748 -12.2
113.4051 -12.2
113.4385 -12.2
113.4718 -12.2
113.5019 -12.2
113.5346 -12.2
113.5653 -12.2
113.5986 -12.2
113.6282 -12.2
113.6582 -12.2
113.69 -12.2
113.7204 -12.2
113.7538 -12.2
113.7863 -12.2
113.8182 -12.2
113.8485 -12.2
113.8783 -12.2
113.9116 -12.2
113.945 -12.2
113.9775 -12.2
114.0109 -12.2
114.0438 -12.2
114.0771 -12.2
114.1071 -12.2
114.1377 -12.2
114.1705 -12.2
114.1995 -12.2
114.2328 -12.2
114.2661 -12.2
114.2976 -12.2
114.3266 -12.2
114.3566 -12.2
114.3899 -12.2
114.4202 -12.2
114.45 -12.2
114.4822 -12.2
114.5155 -12.2
114.5489 -12.2
114.5822 -12.2
114.6146 -12.2
114.6454 -12.2
114.6784 -12.2
114.7117 -12.2
114.7434 -12.2
114.7755 -12.2
114.8056 -12.2
114.8389 -12.2
114.8723 -12.2
114.9028 -12.2
114.9333 -12.2
114.9662 -12.2
114.9995 -12.2
115.0329 -12.2
115.0652 -12.2
115.0986 -12.2
115.1319 -12.2
115.1652 -12.2
115.1986 -12.2
115.2285 -12.2
115.2603 -12.2
115.2928 -12.2
115.3232 -12.2
115.3566 -12.2
115.3883 -12.2
115.4179 -12.2
115.4491 -12.2
115.4799 -12.2
115.5132 -12.2
115.5424 -12.2
115.5757 -12.2
115.608 -12.2
115.6414 -12.2
115.6747 -12.2
115.7054 -12.2
115.7354 -12.2
115.7687 -12.2
115.798 -12.2
115.8313 -12.2
115.8638 -12.2
115.8931 -12.2
115.9243 -12.2
115.9561 -12.2
115.9895 -12.2
116.0207 -12.2
116.0507 -12.2
116.0811 -12.2
116.1108 -12.2
116.1441 -12.2
116.1749 -12.2
116.205 -12.2
116.2384 -12.2
116.2688 -12.2
116.3022 -12.2
116.3355 -12.2
116.3661 -12.2
116.3973 -12.2
116.4306 -12.2
116.464 -12.2
116.4973 -12.2
116.5279 -12.2
116.5598 -12.2
116.5932 -12.2
116.6265 -12.2
116.6563 -12.2
116.6867 -12.2
116.72 -12.2
116.7533 -12.2
116.7866 -12.2
116.8162 -12.2
116.8491 -12.2
116.878 -12.2
116.9095 -12.2
116.9428 -12.2
116.9762 -12.2
117.0051 -12.2
117.0377 -12.2
117.0711 -12.2
117.1044 -12.2
117.1377 -12.2
117.1682 -12.2
117.2002 -12.2
117.2336 -12.2
117.2669 -12.2
117.2983 -12.2
117.3276 -12.2
117.3574 -12.2
117.388 -12.2
117.4213 -12.2
117.4546 -12.2
117.4848 -12.2
117.5182 -12.2
117.5515 -12.2
117.5848 -12.2
117.6145 -12.2
117.6445 -12.2
117.6768 -12.2
117.7101 -12.2
117.7435 -12.2
117.7768 -12.2
117.8087 -12.2
117.8389 -12.2
117.8706 -12.2
117.904 -12.2
117.9346 -12.2
117.9679 -12.2
118.0004 -12.2
118.0295 -12.2
118.0628 -12.2
118.0918 -12.2
118.1252 -12.2
118.1571 -12.2
118.1883 -12.2
118.2216 -12.2
118.255 -12.2
118.2877 -12.2
118.3199 -12.2
118.352 -12.2
118.3854 -12.2
118.4185 -12.2
118.4519 -12.2
118.4817 -12.2
118.515 -12.2
118.5484 -12.2
118.5812 -12.2
118.6122 -12.2
118.6456 -12.2
118.6773 -12.2
118.7107 -12.2
118.7401 -12.2
118.7703 -12.2
118.8008 -12.2
118.8307 -12.2
118.864 -12.2
118.894 -12.2
118.9274 -12.2
118.9578 -12.2
118.9912 -12.2
119.0245 -12.2
119.0547 -12.2
119.088 -12.2
119.1214 -12.2
119.1514 -12.2
119.1847 -12.2
119.218 -12.2
119.2514 -12.2
119.2847 -12.2
119.3145 -12.2
119.3478 -12.2
119.3769 -12.2
119.4075 -12.2
119.4391 -12.2
119.4724 -12.2
119.5057 -12.2
119.5362 -12.2
119.5687 -12.2
119.6021 -12.2
119.6331 -12.2
119.6665 -12.2
119.6998 -12.2
119.7318 -12.2
119.7613 -12.2
119.792 -12.2
119.8253 -12.2
119.8566 -12.2
119.8851 -12.2
119.9175 -12.2
119.9509 -12.2
119.9842 -12.2
120.0138 -12.2
120.044 -12.2
120.0758 -12.2
120.1071 -12.2
120.1405 -12.2
120.172 -12.2
120.2054 -12.2
120.2359 -12.2
120.2692 -12.2
120.3026 -12.2
120.3359 -12.2
120.3659 -12.2
120.3993 -12.2
120.4326 -12.2
120.4659 -12.2
120.4954 -12.2
120.5247 -12.2
120.558 -12.2
120.5892 -12.2
120.6225 -12.2
120.6526 -12.2
120.686 -12.2
120.718 -12.2
120.7514 -12.2
120.7847 -12.2
120.8164 -12.2
120.8459 -12.2
120.8762 -12.2
120.9067 -12.2
120.94 -12.2
120.9692 -12.2
120.9992 -12.2
121.0304 -12.2
121.0606 -12.2
121.0939 -12.2
121.1272 -12.2
121.1593 -12.2
121.1926 -12.2
121.2259 -12.2
121.2593 -12.2
121.2889 -12.2
121.3222 -12.2
121.3545 -12.2
121.3878 -12.2
121.4211 -12.2
121.4545 -12.2
121.4833 -12.2
121.5166 -12.2
121.5478 -12.2
121.5812 -12.2
121.6145 -12.45
121.6452 -12.85
121.6786 -12.85
121.7119 -13.3
121.7452 -13.5
121.7764 -13.5
121.8076 -13.5
121.8374 -13.5
121.8708 -13.5
121.9008 -13.5
121.9297 -13.5
121.9631 -13.5
121.9964 -13.5
122.0297 -13.3
122.0602 -13.3
122.0936 -13.3
122.1227 -13.3
122.1544 -13.3
122.1877 -13.3
122.221 -13.3
122.2503 -13.3
122.2836 -13.3
122.316 -13.3
122.3493 -13.3
122.3798 -13.3
122.4132 -13.3
122.4465 -13.3
122.4785 -13.3
122.5118 -13.3
122.5413 -13.3
122.571 -13.3
122.6037 -13.3
122.6355 -13.3
122.6688 -13.3
122.7022 -13.3
122.734 -13.3
122.7638 -13.3
122.796 -13.3
122.8294 -13.3
122.8598 -13.3
122.8922 -13.3
122.9255 -13.3
122.9571 -13.3
122.9904 -13.3
123.02 -13.3
123.0501 -13.3
123.0826 -13.3
123.115 -13.3
123.1484 -13.3
123.1798 -13.3
123.2131 -13.3
123.2452 -13.3
123.2786 -13.3
123.3119 -13.3
123.3437 -13.3
123.377 -13.3
123.4062 -13.3
123.4381 -13.3
123.4715 -13.3
123.5018 -13.3
123.5303 -13.3
123.5627 -13.3
123.5917 -13.3
123.625 -13.3
123.6583 -13.3
123.6917 -13.3
123.725 -13.3
123.7552 -13.3
123.7886 -13.3
123.8188 -13.3
123.8522 -13.3
123.882 -13.3
123.912 -13.3
123.9454 -13.3
123.9778 -13.3
124.0111 -13.3
124.0444 -13.3
124.0772 -13.3
124.1106 -13.3
124.1439 -13.3
124.1765 -13.3
124.2098 -13.3
124.2431 -13.3
124.2734 -13.3
124.3067 -13.3
124.3397 -13.3
124.3713 -13.3
124.4047 -13.3
124.4351 -13.3
124.4684 -13.3
124.5014 -13.3
124.5325 -13.3
124.5658 -13.3
124.5976 -13.3
124.6269 -13.3
124.6585 -13.3
124.6916 -13.3
124.7249 -13.3
124.7561 -13.3
124.7878 -13.3
124.8191 -13.3
124.851 -13.3
124.8843 -13.3
124.9157 -13.3
124.9491 -13.3
124.9805 -13.3
125.0102 -13.3
125.0435 -13.3
125.0722 -13.3
125.1025 -13.3
125.1331 -13.3
125.1664 -13.3
125.1998 -13.3
125.2324 -13.3
125.2627 -13.3
125.2941 -13.3
125.3246 -13.3
125.358 -13.3
125.3874 -13.3
125.4184 -13.3
125.4518 -13.3
125.4817 -13.3
125.515 -13.3
125.5483 -13.3
125.5784 -13.3
125.6093 -13.3
125.6426 -13.3
125.6759 -13.3
125.7093 -13.3
125.7424 -13.3
125.7742 -13.3
125.8076 -13.3
125.8409 -13.3
125.874 -13.3
125.9074 -13.3
125.939 -13.3
125.9721 -13.3
126.0054 -13.3
126.0345 -13.3
126.0678 -13.3
126.1011 -13.3
126.1328 -13.3
126.1662 -13.3
126.1995 -13.3
126.2328 -13.3
126.2635 -13.3
126.2968 -13.3
126.3302 -13.3
126.3597 -13.3
126.3909 -13.3
126.4216 -13.3
126.4549 -13.3
126.4883 -13.3
126.5184 -13.3
126.5495 -13.3
126.581 -13.3
126.6109 -13.3
126.6442 -13.3
126.6734 -13.3
126.7068 -13.3
126.7398 -13.3
126.7731 -13.3
126.8064 -13.3
126.8397 -13.3
126.873 -13.3
126.9041 -13.3
126.9364 -13.3
126.9698 -13.3
127.0012 -13.3
127.0345 -13.3
127.0639 -13.3
127.094 -13.3
127.1273 -13.3
127.1607 -13.3
127.1937 -13.3
127.227 -13.3
127.2567 -13.3
127.2901 -13.3
127.3204 -13.3
127.3507 -13.3
127.3799 -13.3
127.4132 -13.3
127.4465 -13.3
127.477 -13.3
127.5061 -13.3
127.5374 -13.3
127.567 -13.3
127.6003 -13.3
127.6337 -13.3
127.6627 -13.3
127.6958 -13.3
127.7291 -13.3
127.7625 -13.3
127.795 -13.3
127.8241 -13.3
127.8574 -13.3
127.8883 -13.3
127.9217 -13.3
127.955 -13.3
127.9883 -13.3
128.0191 -13.3
128.0489 -13.3
128.0823 -13.3
128.1129 -13.3
128.1433 -13.3
128.1734 -13.3
128.2028 -13.3
128.2361 -13.3
128.2659 -13.3
128.2971 -13.3
128.3304 -13.3
128.3628 -13.3
128.3961 -13.3
128.4286 -13.3
128.4618 -13.3
128.4951 -13.3
128.5255 -13.3
128.5588 -13.3
128.5921 -13.3
128.6235 -13.3
128.6568 -13.3
128.6902 -13.3
128.7235 -13.3
128.7535 -13.3
128.7827 -13.3
128.8139 -13.3
128.8441 -13.3
128.8774 -13.3
128.9106 -13.3
128.944 -13.3
128.9727 -13.3
129.003 -13.3
129.0363 -13.3
129.0677 -13.3
129.1007 -13.3
129.133 -13.3
129.1663 -13.3
129.1997 -13.3
129.2327 -13.3
129.266 -13.3
129.2952 -13.3
129.3265 -13.3
129.3598 -13.3
129.3931 -13.3
129.4261 -13.3
129.4568 -13.3
129.4886 -13.3
129.5219 -13.3
129.5552 -13.3
129.5886 -13.3
129.6171 -13.3
129.6494 -13.3
129.6827 -13.3
129.7135 -13.3
129.742 -13.3
129.7736 -13.3
129.8036 -13.3
129.8369 -13.3
129.8703 -13.3
129.9036 -13.3
129.934 -13.3
129.9673 -13.3
130.0007 -13.3
130.0313 -13.3
130.0647 -13.3
130.0952 -13.3
130.1258 -13.3
130.1591 -13.3
130.1892 -13.3
130.2192 -13.3
130.2493 -13.3
130.2827 -13.3
130.316 -13.3
130.3493 -13.3
130.3826 -13.1
130.416 -12.85
130.4455 -12.85
130.4788 -12.65
130.5121 -12.45
130.5448 -12.45
130.5761 -12.2
130.607 -12.2
130.6403 -12.2
130.672 -12.2
130.7007 -12.2
130.734 -12.2
130.7658 -12.2
130.7991 -12.2
130.8325 -12.2
130.8631 -12.2
130.8944 -12.2
130.9245 -12.2
130.9578 -12.2
130.9912 -12.2
131.0245 -12.2
131.0549 -12.2
131.0882 -12.2
131.1215 -12.2
131.1504 -12.2
131.1837 -12.2
131.2131 -12
131.2461 -12
131.2795 -11.75
131.3128 -11.35
131.3441 -11.35
131.3753 -10.9
131.4079 -10.25
131.4412 -10.25
131.4699 -9.8
131.5002 -9.6
131.5323 -9.6
131.5623 -9.15
131.5956 -9.15
131.6253 -9.15
131.6548 -9.15
131.6877 -9.15
131.7173 -9.15
131.7506 -9.15
131.7813 -9.15
131.8147 -9.15
131.848 -8.95
131.8813 -8.95
131.9147 -8.95
131.948 -8.5
131.9813 -8.3
132.0147 -7.85
132.0439 -7.85
132.0772 -7.85
132.1106 -7.85
132.1409 -7.85
132.1698 -7.85
132.1995 -7.85
132.2329 -7.85
132.2662 -7.85
132.2969 -7.85
132.3302 -7.85
132.3613 -7.85
132.3946 -7.85
132.4239 -7.85
132.4548 -7.85
132.4841 -7.85
132.5167 -7.85
132.5501 -7.85
132.5834 -7.85
132.6126 -7.85
132.6459 -7.6
132.678 -7.6
132.7113 -7.4
132.7439 -7.2
132.7737 -7.2
132.8056 -7.2
132.8374 -6.95
132.8707 -6.95
132.9041 -6.95
132.9341 -6.95
132.9675 -6.95
132.9999 -6.95
133.0332 -6.95
133.0631 -6.95
133.0952 -6.95
133.1285 -6.95
133.1589 -6.95
133.1922 -6.95
133.2238 -6.95
133.2533 -6.95
133.2845 -6.95
133.3155 -6.95
133.3488 -7.2
133.3822 -7.2
133.4155 -7.4
133.4446 -7.4
133.478 -7.4
133.5113 -7.6
133.5409 -7.85
133.5738 -7.85
133.6071 -7.85
133.6385 -7.85
133.6718 -7.85
133.7052 -7.85
133.7348 -7.85
133.7645 -7.85
133.7978 -7.85
133.8311 -7.6
133.8645 -7.6
133.894 -7.6
133.9234 -7.6
133.953 -7.6
133.9863 -7.6
134.016 -7.6
134.0461 -7.6
134.0757 -7.6
134.107 -7.4
134.1403 -7.2
134.1708 -7.2
134.2002 -6.95
134.2335 -6.75
134.2624 -6.75
134.2957 -6.75
134.3242 -6.75
134.3575 -6.75
134.3884 -6.75
134.4193 -6.75
134.4526 -6.75
134.4859 -6.75
134.5193 -6.75
134.551 -6.75
134.5802 -6.75
134.6136 -6.75
134.6469 -6.75
134.6768 -6.75
134.7063 -6.75
134.7397 -6.75
134.773 -6.75
134.8045 -6.75
134.8357 -6.75
134.869 -6.75
134.9024 -6.75
134.9357 -6.75
134.9653 -6.55
134.9967 -6.55
135.0258 -6.55
135.0568 -6.3
135.0901 -6.1
135.1235 -6.1
135.1522 -6.1
135.1838 -5.85
135.2153 -5.85
135.2487 -5.85
135.2795 -5.85
135.3105 -5.85
135.3439 -5.85
135.3769 -5.85
135.4102 -5.85
135.4435 -5.85
135.473 -5.85
135.5026 -5.85
135.5324 -5.85
135.5657 -5.85
135.5991 -5.85
135.6324 -5.85
135.6657 -5.85
135.6991 -5.85
135.7309 -5.85
135.7617 -5.85
135.7951 -5.85
135.8284 -5.85
135.8617 -5.85
135.8936 -5.85
135.927 -5.85
135.9603 -5.65
135.9909 -5.45
136.0243 -5.45
136.0536 -5.45
136.087 -5.45
136.1162 -5.45
136.1483 -5.45
136.1817 -5.45
136.2122 -5.45
136.2433 -5.45
136.2745 -5.45
136.3078 -5.45
136.3411 -5.45
136.371 -5.2
136.4043 -5.2
136.4353 -5
136.4675 -4.8
136.5009 -4.8
136.5342 -4.55
136.5675 -4.35
136.6009 -4.35
136.6308 -4.35
136.6642 -4.35
136.6958 -4.35
136.7264 -4.35
136.7567 -4.35
136.7901 -4.35
136.8234 -4.35
136.8522 -4.35
136.8848 -4.35
136.9171 -4.35
136.9504 -4.35
136.9837 -4.35
137.0157 -4.35
137.0488 -4.35
137.0782 -4.35
137.1115 -4.35
137.1449 -4.35
137.1782 -4.35
137.2103 -4.35
137.2428 -4.15
137.272 -4.15
137.3053 -4.15
137.3372 -4.15
137.3705 -4.15
137.4039 -4.15
137.4361 -4.15
137.4695 -4.15
137.501 -4.15
137.534 -4.15
137.5659 -4.15
137.596 -4.15
137.6293 -4.15
137.6627 -4.15
137.6931 -4.15
137.7218 -4.15
137.7525 -4.15
137.7858 -4.15
137.816 -4.15
137.8457 -4.15
137.8765 -4.15
137.9099 -4.15
137.9432 -3.9
137.9765 -3.7
138.0067 -3.7
138.0365 -3.7
138.0669 -3.7
138.1002 -3.7
138.1316 -3.7
138.1625 -3.7
138.1958 -3.7
138.2287 -3.7
138.2621 -3.7
138.2932 -3.45
138.3233 -3.25
138.3522 -3.25
138.3828 -3.25
138.4161 -3.05
138.4494 -3.05
138.4788 -2.6
138.5121 -2.4
138.5427 -2.4
138.5761 -2.15
138.6057 -2.15
138.6367 -2.15
138.67 -2.15
138.6995 -2.15
138.7329 -2.15
138.7642 -2.15
138.7944 -2.15
138.8278 -2.15
138.8578 -2.15
138.8911 -2.15
138.9217 -2.15
138.9528 -2.15
138.9862 -2.15
139.0195 -2.15
139.0528 -2.15
139.0826 -2.15
139.1156 -2.15
139.1467 -2.15
139.1759 -2.15
139.2093 -2.15
139.2379 -2.15
139.2679 -2.15
139.2978 -2.15
139.3311 -2.15
139.3645 -2.15
139.3959 -2.15
139.4258 -2.15
139.4566 -2.15
139.4897 -2.15
139.523 -2.15
139.5544 -2.15
139.5878 -2.15
139.6181 -2.15
139.6515 -2.15
139.6848 -2.15
139.7181 -2.15
139.748 -2.15
139.7789 -2.15
139.8099 -2.15
139.8432 -2.15
139.8727 -2.15
139.906 -1.95
139.9394 -1.95
139.9708 -1.95
140.0041 -1.95
140.0374 -1.95
140.0672 -1.95
140.0974 -1.95
140.13 -1.95
140.1634 -1.95
140.1951 -1.95
140.2284 -1.95
140.2593 -1.95
140.2919 -1.95
140.3252 -1.95
140.3558 -1.95
140.3852 -1.95
140.4151 -1.95
140.4464 -1.95
140.4798 -1.95
140.5083 -1.95
140.5417 -1.95
140.5709 -1.95
140.6037 -1.95
140.6371 -1.95
140.6699 -1.95
140.7032 -1.95
140.734 -1.95
140.7643 -1.95
140.7977 -1.95
140.831 -1.95
140.8623 -1.95
140.8922 -1.95
140.9238 -1.95
140.9571 -1.95
140.9899 -1.95
141.0188 -1.95
141.0506 -1.95
141.0796 -1.7
141.1129 -1.7
141.1462 -1.5
141.1796 -1.3
141.2093 -1.3
141.2426 -1.05
141.276 -1.05
141.3065 -1.05
141.3398 -0.85
141.3702 -0.65
141.4036 -0.65
141.4369 -0.4
141.4683 -0.2
141.4993 -0.2
141.529 0.4
141.5613 0.65
141.5946 0.65
141.6252 0.85
141.6585 1.3
141.6884 1.3
141.7217 1.7
141.7551 2.4
141.7881 2.8
141.819 2.8
141.8508 3.25
141.8812 3.25
141.9145 3.7
141.9479 3.9
141.9799 4.35
142.0132 5
142.0466 5
142.0793 5.2
142.1112 5.45
142.1445 5.45
142.1778 5.65
142.2112 5.65
142.2445 5.65
142.2778 5.65
142.3109 5.85
142.3423 5.85
142.3757 5.85
142.4053 5.85
142.4345 5.85
142.4653 5.85
142.4955 5.85
142.5289 5.85
142.5622 6.1
142.5955 6.75
142.6269 6.75
142.6585 7.4
142.6918 8.7
142.7225 8.7
142.7558 9.8
142.788 10.7
142.8174 10.7
142.8507 11.75
142.884 12.45
142.9146 12.45
142.9433 13.1
142.9767 13.75
143.01 14.4
143.0433 14.4
143.0724 15.05
143.103 15.05
143.1347 15.7
143.1681 16.6
143.1974 16.6
143.2273 17.25
143.2588 17.9
143.2907 17.9
143.324 18.75
143.3557 19.2
143.3854 19.2
143.417 19.85
143.4503 20.5
143.4837 20.5
143.5129 20.95
143.5447 20.95
143.578 21.8
143.6114 22.7
143.6447 23.35
143.6776 23.35
143.707 24
143.7373 24.45
143.7671 24.45
143.8004 24.9
143.8338 25.3
143.8658 25.3
143.8957 25.55
143.9272 25.55
143.9606 25.95
143.9931 26.4
144.0222 26.4
144.0528 27.05
144.0849 27.5
144.1183 27.95
144.1478 27.95
144.1811 28.35
144.2109 28.35
144.2442 28.6
144.2776 29.05
144.3091 29.05
144.3387 29.25
144.3721 29.45
144.402 29.45
144.4354 29.7
144.4687 29.9
144.499 29.9
144.5296 30.1
144.563 30.35
144.5963 30.8
144.6268 30.8
144.658 31.2
144.6913 31.45
144.7247 31.45
144.758 31.65
144.7869 31.85
144.8192 31.85
144.8525 31.85
144.8858 31.85
144.9192 31.85
144.9492 31.85
144.982 31.85
145.015 31.85
145.0472 31.85
145.0805 31.85
145.1139 31.85
145.1449 31.85
145.1746 31.85
145.2069 31.85
145.2402 31.85
145.2728 31.85
145.3062 31.85
145.3395 31.85
145.3728 31.85
145.4062 31.85
145.4369 31.85
145.4673 31.85
145.498 31.85
145.5313 31.85
145.5646 31.85
145.5974 31.85
145.6272 31.85
145.6575 31.85
145.6865 31.85
145.7198 31.85
145.7532 31.85
145.7855 31.85
145.8152 31.85
145.8459 31.85
145.8792 31.85
145.91 31.85
145.9395 31.85
145.971 31.85
146.0005 31.85
146.0338 31.85
146.0633 31.85
146.0937 31.85
146.127 31.85
146.1594 31.65
146.1927 31
146.2246 31
146.2578 30.35
146.2886 29.45
146.3181 29.45
146.3514 28.6
146.382 27.95
146.4153 27.95
146.4466 27.05
146.4786 26.65
146.5119 26.65
146.5453 25.95
146.5755 25.75
146.6064 25.75
146.6369 25.75
146.6703 25.75
146.703 25.75
146.7328 25.95
146.7654 26.4
146.7987 26.4
146.832 26.85
146.8654 27.3
146.8973 27.3
146.9285 27.5
146.958 27.7
146.9914 27.7
147.0206 28.15
147.0507 28.6
147.0808 28.6
147.1129 29.05
147.1462 29.25
147.1785 29.25
147.2092 29.25
147.2396 29.25
147.2695 29.25
147.3028 29.25
147.3336 29.05
147.365 29.05
147.3983 28.35
147.4286 27.5
147.4619 27.5
147.4952 26.4
147.5285 25.3
147.561 25.3
147.5926 23.8
147.6259 21.8
147.6592 21.8
147.6891 19.65
147.7194 17.9
147.7505 17.9
147.7839 16.15
147.8145 14.6
147.8479 14.6
147.8779 13.75
147.9113 13.5
147.9446 13.1
147.9767 13.1
148.01 12.85
148.0405 12.85
148.0726 12.85
148.1059 12.85
148.1393 12.85
148.1726 12.85
148.2059 12.65
148.2353 12
148.2687 12
148.302 10.9
148.3348 9.6
148.3645 9.6
148.3959 8.7
148.4293 8.05
148.4626 8.05
148.4937 7.6
148.527 7.4
148.5582 7.4
148.5916 6.95
148.6214 6.75
148.6512 6.75
148.6841 6.55
148.7171 6.55
148.7504 6.3
148.7811 6.3
148.8144 6.3
148.8478 6.3
148.8811 6.3
148.9144 6.3
148.9478 6.3
148.9801 6.3
149.0115 6.3
149.0419 6.3
149.0752 6.1
149.1068 5.65
149.1392 4.8
149.172 4.8
149.2019 4.15
149.2352 3.25
149.2645 3.25
149.2949 2.15
149.3263 2.15
149.3577 1.05
149.3911 0.2
149.4208 0.2
149.4507 -0.4
149.484 -0.65
149.5165 -0.65
149.5499 -0.85
149.5797 -1.3
149.6097 -1.3
149.6387 -2.15
149.6693 -3.05
149.7027 -4.8
149.736 -4.8
149.7677 -6.55
149.801 -8.5
149.8344 -8.5
149.8677 -10
149.8984 -11.75
149.9317 -11.75
149.9617 -13.75
149.9951 -15.25
150.0284 -15.25
150.0577 -16.6
150.0888 -16.6
150.1204 -18.1
150.1495 -19.65
150.1828 -19.65
150.2161 -20.95
150.2457 -22.5
150.2753 -22.5
150.3087 -23.55
150.342 -24.65
150.3721 -24.65
150.4011 -25.75
150.4326 -26.65
150.466 -26.65
150.4993 -27.5
150.5316 -28.35
150.5622 -28.35
150.5913 -29.05
150.6246 -29.9
150.6579 -29.9
150.6912 -30.8
150.7207 -31.2
150.754 -31.2
150.7844 -31.65
150.8178 -31.85
150.8511 -31.85
150.8816 -32.1
150.9105 -32.1
150.9426 -32.1
150.9759 -32.3
151.0092 -32.3
151.0396 -32.3
151.0702 -32.5
151.1013 -32.5
151.1346 -32.75
151.1638 -32.95
151.1947 -32.95
151.2245 -32.95
151.2579 -33.2
151.2912 -33.2
151.3245 -33.2
151.3531 -33.2
151.3864 -33.2
151.418 -33.2
151.4513 -33.2
151.4807 -33.2
151.5121 -33.2
151.5443 -33.2
151.5774 -33.2
151.6107 -33.2
151.6441 -33.2
151.6732 -33.2
151.7048 -33.2
151.7381 -33.2
151.7715 -33.2
151.8026 -33.2
151.8327 -33.2
151.866 -33.4
151.8993 -33.4
151.9327 -34.25
151.9622 -34.95
151.993 -34.95
152.0237 -36
152.0545 -36.65
152.0879 -36.65
152.1212 -37.35
152.1524 -37.55
152.1822 -37.55
152.2144 -38
152.2477 -38.2
152.28 -38.4
152.309 -38.4
152.3385 -38.85
152.368 -38.85
152.4013 -39.1
152.4332 -39.1
152.4665 -39.1
152.4982 -39.1
152.529 -39.1
152.5623 -39.1
152.5938 -39.1
152.6271 -39.1
152.6604 -39.1
152.6938 -39.1
152.7271 -39.1
152.7579 -39.1
152.7884 -39.3
152.8193 -39.5
152.8495 -39.5
152.8828 -39.75
152.9128 -39.75
152.9435 -39.75
152.9736 -39.75
153.0069 -39.75
153.0402 -39.75
153.0734 -39.75
153.104 -39.75
153.1331 -39.75
153.1664 -39.75
153.1998 -39.75
153.2331 -39.75
153.2629 -39.5
153.2962 -39.3
153.3269 -39.3
153.3602 -38.85
153.3936 -38.85
153.4269 -38.85
153.4568 -38.85
153.4901 -38.85
153.5234 -38.85
153.5558 -38.85
153.5891 -38.85
153.619 -38.85
153.6519 -38.85
153.6853 -39.1
153.7157 -39.1
153.7468 -39.1
153.7775 -39.1
153.8083 -39.1
153.8417 -39.3
153.8717 -39.5
153.9004 -39.5
153.9338 -39.5
153.9654 -39.5
153.9988 -39.5
154.0303 -39.75
154.0606 -39.75
154.0896 -39.75
154.1227 -39.95
154.156 -40.15
154.1866 -40.4
154.2173 -40.4
154.2499 -40.4
154.2832 -40.4
154.3165 -40.6
154.3456 -40.6
154.379 -40.6
154.4097 -40.6
154.4431 -40.6
154.4764 -40.4
154.5097 -40.4
154.5395 -40.4
154.5708 -40.4
154.6041 -40.4
154.6375 -40.4
154.6665 -40.6
154.6984 -40.6
154.729 -41.05
154.7624 -41.5
154.7957 -41.5
154.8261 -41.9
154.8593 -42.35
154.8926 -42.35
154.9231 -42.8
154.9564 -43
154.9897 -43
155.0231 -43.65
155.0519 -44.1
155.0853 -44.1
155.1186 -45
155.1494 -45.65
155.1828 -45.65
155.2121 -46.3
155.2425 -47.15
155.2758 -47.15
155.3054 -48.05
155.3353 -49.15
155.3662 -49.15
155.3996 -50.2
155.4329 -51.1
155.4662 -51.1
155.496 -52.6
155.528 -53.7
155.5591 -53.7
155.5924 -54.6
155.6217 -56.1
155.6539 -56.1
155.6873 -57
155.7206 -58.3
155.7539 -59.4
155.7835 -59.4
155.8165 -60.25
155.8495 -61.35
155.8828 -61.35
155.9161 -62
155.9494 -62
155.9793 -62
156.0102 -62
156.0401 -62
156.0735 -62
156.1068 -62
156.1351 -62
156.1649 -62
156.1944 -61.35
156.2277 -60.5
156.2576 -60.5
156.291 -60.05
156.3203 -60.05
156.3517 -60.05
156.385 -60.05
156.4171 -60.25
156.4467 -60.25
156.4801 -60.5
156.5092 -60.9
156.5425 -60.9
156.5737 -61.6
156.6047 -62
156.6378 -62
156.6712 -62.25
156.7045 -62.45
156.735 -62.45
156.7676 -62.65
156.801 -62.9
156.8319 -62.9
156.8652 -63.1
156.8985 -63.1
156.929 -63.3
156.9579 -63.3
156.9908 -63.3
157.0241 -63.3
157.0563 -63.3
157.085 -63.3
157.1184 -63.3
157.1485 -63.3
157.1818 -63.3
157.2151 -62.65
157.2485 -62.65
157.2816 -61.8
157.3149 -60.9
157.3482 -58.3
157.3795 -58.3
157.4129 -56.55
157.4441 -55
157.4774 -55
157.5107 -53.05
157.5438 -50.85
157.5771 -50.85
157.6105 -48.9
157.6438 -46.95
157.6733 -46.95
157.7044 -45
157.7332 -43.45
157.7666 -43.45
157.7999 -42.55
157.8307 -41.9
157.864 -41.9
157.8962 -41.25
157.9269 -40.15
157.9602 -38.65
157.9908 -38.65
158.0209 -36.65
158.0543 -36.65
158.0871 -34.5
158.1205 -32.1
158.1538 -28.8
158.1845 -28.8
158.2176 -25.75
158.2473 -25.75
158.2806 -22.05
158.3092 -18.1
158.3425 -14.4
158.3733 -14.4
158.4057 -11.55
158.439 -8.05
158.4706 -8.05
158.4997 -4.8
158.533 -1.7
158.5634 -1.7
158.5967 1.3
158.6261 1.3
158.657 3.45
158.6861 6.1
158.7194 6.1
158.7528 8.05
158.7828 10
158.8124 10
158.8425 12.2
158.8732 14.4
158.9065 14.4
158.9398 16.15
158.9693 18.1
159.0012 18.1
159.0316 19.85
159.0649 21.4
159.0982 21.4
159.1284 22.25
159.1602 23.15
159.1933 23.15
159.2267 23.15
159.2589 23.15
159.2912 23.15
159.3241 23.15
159.3552 22.9
159.3885 22.9
159.4188 21.8
159.4518 20.5
159.4843 20.5
159.5175 19.65
159.5508 18.55
159.5833 18.55
159.6167 17.9
159.6454 16.8
159.677 16.8
159.7103 15.7
159.7418 14.4
159.7751 14.4
159.8048 12.85
159.836 12.85
159.8693 11.35
159.8993 8.95
159.9326 8.95
159.966 6.75
159.9993 4.15
160.0327 1.5
160.066 -0.65
160.0939 -0.65
160.1242 -2.6
160.1533 -2.6
160.1866 -3.9
160.2156 -4.55
160.2489 -4.55
160.2823 -5.2
160.3156 -5.85
160.3489 -6.1
160.3823 -6.1
160.4156 -6.55
160.4489 -6.75
160.4823 -7.4
160.5156 -7.4
160.545 -7.85
160.5784 -8.3
160.6093 -8.3
160.6382 -8.7
160.6715 -8.7
160.7048 -8.7
160.7382 -8.7
160.7712 -8.7
160.8001 -8.7
160.8334 -8.05
160.8667 -8.05
160.8977 -7.2
160.9272 -6.1
160.9576 -6.1
160.991 -5
161.0243 -3.9
161.0535 -3.9
161.0868 -2.4
161.1201 -0.85
161.1535 0.65
161.1834 0.65
161.2167 1.7
161.2489 3.05
161.2805 3.05
161.3138 4.8
161.3471 6.55
161.3805 6.55
161.4115 8.05
161.4419 9.8
161.4752 11.75
161.5039 11.75
161.5336 13.5
161.565 13.5
161.5983 15.5
161.6317 16.8
161.6645 19
161.6969 19
161.7269 20.95
161.7602 23.35
161.7936 23.35
161.823 25.1
161.8538 27.3
161.8871 27.3
161.9205 29.25
161.9538 31.2
161.9843 31.2
162.0128 32.95
162.0461 34.95
162.0759 34.95
162.1092 36.65
162.1422 38.65
162.172 38.65
162.2053 40.8
162.2355 42.35
162.2688 44.3
162.3021 44.3
162.3309 46.05
162.3642 47.8
162.3975 47.8
162.4309 49.35
162.4605 50.85
162.4919 50.85
162.5225 52.4
162.5555 53.7
162.5889 53.7
162.6193 54.6
162.6486 54.6
162.6819 55.25
162.7113 55.45
162.7446 55.7
162.7779 55.7
162.8113 55.7
162.8411 55.7
162.8722 55.7
162.9055 55.7
162.9369 55.7
162.9702 55.7
163.0036 55.7
163.0369 55.7
163.0702 55.7
163.099 55.7
163.1323 55
163.1642 55
163.1961 53.5
163.2294 51.55
163.2593 51.55
163.2874 50
163.3191 47.4
163.3525 47.4
163.3858 45.65
163.4153 43
163.4456 43
163.4738 40.8
163.5056 38
163.539 38
163.5687 35.6
163.5973 33.85
163.6307 33.85
163.6613 31.85
163.6946 30.35
163.728 30.35
163.7613 27.7
163.7932 25.75
163.8251 25.75
163.8584 22.7
163.8918 20.95
163.9223 20.95
163.9556 17
163.9846 15.05
164.0179 11.75
164.0505 11.75
164.0798 9.6
164.1083 9.6
164.1383 8.05
164.1716 6.95
164.2017 6.95
164.2313 5.65
164.261 4.55
164.2906 4.55
164.3239 3.7
164.3573 2.6
164.3882 2.6
164.4191 0.85
164.4524 -1.05
164.4857 -2.4
164.5165 -2.4
164.5499 -3.9
164.5806 -3.9
164.613 -5
164.6463 -5.85
164.6756 -5.85
164.7089 -6.55
164.7406 -7.4
164.7739 -7.85
164.8073 -7.85
164.8406 -7.85
164.8739 -7.85
164.9072 -7.85
164.9366 -7.6
164.97 -7.4
165.0014 -7.4
165.0336 -6.75
165.0664 -6.55
165.0998 -6.55
165.1331 -6.3
165.1664 -6.3
165.1998 -6.3
165.2292 -6.3
165.2623 -6.1
165.2957 -5.2
165.329 -5.2
165.3585 -4.35
165.3873 -3.05
165.4177 -3.05
165.451 -1.7
165.4818 -0.85
165.5135 -0.85
165.5468 1.3
165.5757 3.45
165.609 3.45
165.6374 5.2
165.6705 6.55
165.7038 6.55
165.7371 8.3
165.7704 9.6
165.8037 9.6
165.8327 10.9
165.8629 12
165.8927 12
165.926 12.65
165.9562 13.3
165.9895 13.3
166.0228 13.75
166.054 13.75
166.0874 13.75
166.1188 13.75
166.1522 13.75
166.1855 13.75
166.2188 13.95
166.2522 13.95
166.2805 13.95
166.3138 14.4
166.3434 14.6
166.374 14.6
166.4073 15.05
166.4407 15.7
166.4728 15.7
166.5033 15.9
166.5341 16.35
166.5675 16.35
166.5962 16.6
166.6261 16.6
166.6594 16.6
166.6924 16.6
166.7257 16.6
166.7572 16.6
166.7866 16.6
166.8165 16.6
166.8498 16.6
166.8831 16.35
166.9144 15.9
166.9457 15.9
166.9779 15.05
167.0113 14.15
167.0446 14.15
167.0779 13.3
167.1061 12.45
167.1353 12.45
167.1659 11.35
167.1992 10.45
167.2279 10.45
167.2612 10
167.2901 9.6
167.3201 9.6
167.3534 9.35
167.3867 9.15
167.4164 9.15
167.4483 8.95
167.4791 8.7
167.5124 8.7
167.5417 8.5
167.5743 7.85
167.6041 7.85
167.6352 7.2
167.6685 6.3
167.7019 6.3
167.7314 5.65
167.7617 5.65
167.795 3.9
167.8284 2.8
167.8617 1.7
167.8914 1.7
167.9207 0.65
167.9525 0.65
167.9858 -0.2
168.0191 -0.4
168.0525 -0.4
168.0858 -0.4
168.1156 -0.4
168.1489 -0.4
168.1782 -0.4
168.2079 -0.4
168.2363 -0.4
168.267 -0.4
168.3004 -0.4
168.3337 -0.4
168.3624 -0.4
168.3937 -0.4
168.4231 -0.4
168.4565 -0.4
168.4871 -0.2
168.5205 -0.2
168.5538 -0.2
168.5871 -0.2
168.6205 0
168.6519 0
168.6814 0.4
168.7143 0.85
168.7477 0.85
168.781 1.7
168.8141 3.05
168.8445 3.05
168.8779 4.35
168.9105 5.65
168.9438 7.2
168.9772 7.2
169.0058 8.95
169.0368 8.95
169.0658 10.25
169.0991 11.75
169.1286 11.75
169.1619 13.75
169.1944 15.5
169.2257 15.5
169.259 17.65
169.2923 19.4
169.3243 21.6
169.3576 21.6
169.3888 23.55
169.4221 26.4
169.4525 26.4
169.4836 30.1
169.5169 33.6
169.5502 33.6
169.5836 38.65
169.6133 42.15
169.6424 42.15
169.6719 45.65
169.7052 48.25
169.7386 48.25
169.7685 51.3
169.8002 53.5
169.8329 53.5
169.8662 56.55
169.8995 58.75
169.9301 58.75
169.9603 61.35
169.9904 63.55
170.0222 63.55
170.0555 64.85
170.0889 65.3
170.1213 65.3
170.1529 65.3
170.186 65.95
170.2193 65.95
170.2526 68.35
170.286 71.4
170.3162 71.4
170.3453 74.9
170.3786 78.6
170.4079 78.6
170.4412 81.9
170.4721 85.8
170.5054 89.1
170.5387 89.1
170.5704 92.15
170.6038 94.35
170.6371 94.35
170.6705 96.55
170.7038 98.3
170.7335 98.3
170.7651 100
170.794 101.1
170.8239 101.1
170.8572 102.2
170.8871 102.85
170.9205 102.85
170.9521 103.1
170.9855 103.75
171.0188 103.75
171.051 104.15
171.0822 105.25
171.1141 105.25
171.1474 106.6
171.1808 107.45
171.2112 107.45
171.2445 108.55
171.2778 109.4
171.3102 109.4
171.3435 110.05
171.3751 110.3
171.4056 110.3
171.4357 110.3
171.4691 110.3
171.5024 110.3
171.5355 110.3
171.5647 110.3
171.598 110.3
171.6303 109.85
171.6636 109.2
171.6926 109.2
171.7231 108.75
171.7564 108.1
171.7876 108.1
171.8209 107.25
171.8516 106.35
171.8849 105.5
171.9183 105.5
171.9474 105.05
171.9808 105.05
172.0113 105.05
172.0439 105.05
172.0737 105.05
172.1062 105.05
172.1395 105.05
172.1704 105.05
172.2038 105.05
172.2371 105.05
172.2691 105.05
172.3024 105.05
172.3357 104.85
172.3691 104.15
172.4024 104.15
172.4329 103.75
172.4662 103.5
172.4995 103.5
172.5329 103.5
172.5642 103.5
172.5966 103.5
172.6299 103.5
172.6606 103.5
172.6939 103.5
172.7224 103.3
172.7545 102.85
172.7878 102.2
172.8181 102.2
172.8469 100.7
172.8802 100.7
172.9136 99.8
172.9469 98.95
172.9756 98.5
173.0089 98.5
173.0376 98.05
173.0696 98.05
173.103 98.05
173.1363 97.85
173.166 97.85
173.1993 97.4
173.229 96.75
173.2624 95.85
173.2907 95.85
173.3219 94.8
173.3533 94.8
173.3866 93.7
173.42 93.25
173.4533 92.4
173.482 92.4
173.5153 92.15
173.5486 92.15
173.582 92.15
173.6153 92.15
173.6486 92.15
173.682 92.15
173.7142 92.15
173.7475 92.15
173.7808 92.15
173.8109 92.15
173.8409 92.15
173.8742 92.15
173.9075 92.15
173.9409 92.15
173.97 91.95
173.9995 91.95
174.0328 91.3
174.0661 90.4
174.0973 90.4
174.1299 89.55
174.1616 88.9
174.1919 88.9
174.2253 88.65
174.2548 88.45
174.2847 88.45
174.3138 88.45
174.3447 88.45
174.378 88.45
174.4114 88.45
174.4407 88.45
174.4723 88.45
174.5017 88.45
174.535 88.45
174.5651 88.45
174.5959 88.45
174.6292 88.45
174.6619 88.45
174.6952 88.45
174.7262 88.45
174.7569 88.45
174.79 88.45
174.8233 88.45
174.8567 88.45
174.8889 88.45
174.9196 88.45
174.9515 88.45
174.9821 88.45
175.0154 88.45
175.0487 88.45
175.0798 88.45
175.1103 88.45
175.1424 88.45
175.1757 88.45
175.2051 88.45
175.2368 88.45
175.2656 88.45
175.2989 88.45
175.3322 88.45
175.3633 88.45
175.3935 88.45
175.4261 88.45
175.4581 88.45
175.4914 88.45
175.5248 88.45
175.5581 88.45
175.5879 88.45
175.6194 88.45
175.6527 88.45
175.6827 88.45
175.7122 88.45
175.7455 88.45
175.7766 88.45
175.8099 88.45
175.8432 88.45
175.8765 88.45
175.9065 88.45
175.9399 88.45
175.9732 88.45
176.0042 87.55
176.0351 87.55
176.068 86.5
176.1013 85.15
176.1347 85.15
176.168 84.3
176.1982 83
176.2315 81.65
176.2637 81.65
176.297 80.15
176.3303 78.2
176.3637 78.2
176.3948 76.2
176.4281 74.25
176.4614 74.25
176.4901 72.3
176.5234 70.75
176.5564 70.75
176.5897 69
176.6231 67.25
176.6541 65.5
176.686 65.5
176.7174 64.4
176.7484 64.4
176.7818 62.9
176.8151 61.35
176.8454 61.35
176.8759 59.6
176.9088 58.1
176.9421 58.1
176.9754 56.1
177.0088 54.6
177.0421 52.4
177.0721 52.4
177.1054 50.85
177.1351 49.15
177.1685 47.8
177.2018 47.8
177.2351 46.05
177.2685 44.3
177.3 44.3
177.3284 42.8
177.3618 41.05
177.3951 41.05
177.4284 39.1
177.4618 38
177.4922 38
177.5223 36.9
177.5556 35.8
177.5854 35.8
177.6187 34.25
177.6482 33.2
177.6799 33.2
177.7132 30.55
177.7466 28.6
177.7781 28.6
177.8114 26.2
177.8403 24
177.8736 22.05
177.9068 22.05
177.9384 21.15
177.9686 21.15
178.0019 20.75
178.0352 20.75
178.0656 20.75
178.0964 20.75
178.1267 20.75
178.1572 20.75
178.1905 20.75
178.2212 20.75
178.2543 20.75
178.2857 20.75
178.3161 20.75
178.3495 20.75
178.3828 20.75
178.4141 20.75
178.4474 20.75
178.477 20.75
178.5104 20.75
178.5437 20.75
178.577 20.75
178.6104 20.75
178.6413 20.75
178.6747 20.75
178.7053 20.75
178.736 20.75
178.7693 20.75
178.7986 20.75
178.8319 20.75
178.8609 20.75
178.8942 20.75
178.9234 20.75
178.9566 20.75
178.9899 20.75
179.0199 20.75
179.0491 20.75
179.0815 20.75
179.1148 20.75
179.1481 20.75
179.1815 20.75
179.2148 20.75
179.2437 20.75
179.277 20.75
179.3103 20.75
179.3437 20.75
179.377 20.75
179.4072 20.75
179.4405 20.75
179.4738 20.75
179.507 20.75
179.5404 20.75
179.5704 20.75
179.6037 20.75
179.6371 20.75
179.6666 20.75
179.6956 20.75
179.729 20.75
179.7584 20.75
179.7917 20.75
179.8224 20.75
179.8529 20.75
179.8824 20.75
179.914 20.75
179.9473 20.75
179.9806 20.75
180.0097 20.75
180.0407 20.75
180.0741 20.75
180.1074 20.75
180.137 20.75
180.1704 20.75
180.1991 20.75
180.2324 20.75
180.2657 20.75
180.2987 20.75
180.3321 20.75
180.3654 20.75
180.398 20.75
180.4314 20.75
180.4647 20.75
180.4975 20.75
180.5296 20.75
180.5629 20.75
180.5963 20.75
180.6296 20.75
180.6629 20.75
180.6926 20.75
180.726 20.75
180.7593 20.75
180.7926 20.75
180.8246 20.75
180.8529 20.75
180.8838 20.75
180.9171 20.75
180.9467 20.75
180.976 20.75
181.0093 20.75
181.0426 20.75
181.076 20.75
181.1058 20.75
181.1391 20.75
181.1689 20.75
181.2022 20.75
181.2355 20.75
181.2689 20.75
181.2982 20.75
181.3298 20.75
181.3597 20.75
181.393 20.75
181.4261 20.75
181.4594 20.75
181.4896 20.75
181.5229 20.75
181.5562 20.75
181.5859 20.75
181.6147 20.75
181.6445 20.75
181.6778 20.75
181.7112 20.75
181.7445 20.75
181.7766 20.75
181.8055 20.75
181.8376 20.75
181.871 20.75
181.9043 20.75
181.9365 20.75
181.9699 20.75
182.0032 20.75
182.0365 20.75
182.0688 20.75
182.1021 20.75
182.1354 20.75
182.1688 20.75
182.2021 20.75
182.2325 20.75
182.2618 20.75
182.2952 20.75
182.328 20.75
182.3597 20.75
182.3897 20.75
182.423 20.75
182.4563 20.75
182.487 20.75
182.5175 20.75
182.5508 20.75
182.5842 20.75
182.6175 20.75
182.6483 20.75
182.6788 20.75
182.7094 20.75
182.7414 20.75
182.7748 20.75
182.8081 20.75
182.8391 20.75
182.8692 20.75
182.8989 20.75
182.9322 20.75
182.9655 20.75
182.9989 20.75
183.0273 20.75
183.0572 20.75
183.0905 20.75
183.1227 20.75
183.1557 20.75
183.1891 20.75
183.2224 20.75
183.2558 20.75
183.2867 20.75
183.3168 20.75
183.3463 20.75
183.3774 20.75
183.4108 20.75
183.4441 20.75
183.474 20.75
183.5074 20.75
183.5402 20.75
183.5736 20.75
183.6033 20.75
183.6366 20.75
183.6699 20.75
183.7021 20.75
183.7354 20.75
183.7688 20.75
183.8021 20.75
183.832 20.75
183.8654 20.75
183.8987 20.75
183.9292 20.75
183.9593 20.75
183.9926 20.75
184.0228 20.75
184.0561 20.75
184.0895 20.75
184.1228 20.75
184.1561 20.75
184.1895 20.75
184.2228 20.75
184.2558 20.75
184.2891 20.75
184.3195 20.75
184.3528 20.75
184.3862 20.75
184.4182 20.75
184.4483 20.75
184.4796 20.75
184.5113 20.75
184.5447 20.75
184.578 20.75
184.6113 20.75
184.6447 20.75
184.678 20.75
184.7066 20.75
184.7386 20.75
184.7716 20.75
184.8049 20.75
184.8382 20.75
184.8716 20.75
184.9019 20.75
184.9352 20.75
184.9686 20.75
185.0019 20.75
185.0318 20.75
185.0652 20.75
185.0944 20.75
185.1277 20.75
185.1611 20.75
185.1912 20.75
185.2233 20.75
185.2534 20.75
185.285 20.75
185.3183 20.75
185.3517 20.75
185.3816 20.75
185.4103 20.75
185.442 20.75
185.4753 20.75
185.5087 20.75
185.542 20.75
185.5753 20.75
185.6078 20.75
185.6411 20.75
185.6712 20.75
185.7046 20.75
185.7338 20.75
185.7662 20.75
185.7995 20.75
185.8322 20.75
185.8613 20.75
185.8946 20.75
185.925 20.75
185.9584 20.75
185.9874 20.75
186.0173 20.75
186.0504 20.75
186.0837 20.75
186.117 20.75
186.1467 20.75
186.1801 20.75
186.2099 20.75
186.2388 20.75
186.2721 20.75
186.3027 20.75
186.3355 20.75
186.3652 20.75
186.3986 20.75
186.4319 20.75
186.4652 20.75
186.4986 20.75
186.5298 20.75
186.5602 20.75
186.5935 20.75
186.6269 20.75
186.6602 20.75
186.6914 20.75
186.7216 20.75
186.7549 20.75
186.7883 20.75
186.8204 20.75
186.8508 20.75
186.8842 20.75
186.9175 20.75
186.9503 20.75
186.9836 20.75
187.0138 20.75
187.0471 20.75
187.0805 20.75
187.1101 20.75
187.1402 20.75
187.1734 20.75
187.202 20.75
187.2353 20.75
187.267 20.75
187.2971 20.75
187.3278 20.75
187.3591 20.75
187.3924 20.75
187.4257 20.75
187.4543 20.75
187.4874 20.75
187.519 20.75
187.5524 20.75
187.5857 20.75
187.6153 20.75
187.6486 20.75
187.6808 20.75
187.7141 20.75
187.7445 20.75
187.7778 20.75
187.8083 20.75
187.8398 20.75
187.8732 20.75
187.9007 20.75
187.931 20.75
187.9609 20.75
187.9943 20.75
188.0276 20.75
188.0592 20.75
188.0885 20.75
188.1218 20.75
188.1551 20.75
188.1885 20.75
188.2199 20.75
188.2512 20.75
188.2798 20.75
188.3107 20.75
188.344 20.75
188.3773 20.75
188.4065 20.75
188.4379 20.75
188.4713 20.75
188.5046 20.75
188.5361 20.75
188.5665 20.75
188.5998 20.75
188.6316 20.75
188.6649 20.75
188.6979 20.75
188.7312 20.75
188.7646 20.75
188.7979 20.75
188.8312 20.75
188.8634 20.75
188.8964 20.75
188.9269 20.75
188.9577 20.75
188.9911 20.75
189.0226 20.75
189.0526 20.75
189.0826 20.75
189.1147 20.75
189.148 20.75
189.1814 20.75
189.2139 20.75
189.2472 20.75
189.2775 20.75
189.3108 20.75
189.3442 20.75
189.3775 20.75
189.4066 20.75
189.4379 20.75
189.4712 20.75
189.5003 20.75
189.5303 20.75
189.5633 20.75
189.5941 20.75
189.6275 20.75
189.6608 20.75
189.6896 20.75
189.7222 20.75
189.7554 20.75
189.7887 20.75
189.8214 20.75
189.8547 20.75
189.888 20.75
189.9214 20.75
189.9547 20.75
189.9879 20.75
190.0176 20.75
190.0504 20.75
190.0816 20.75
190.115 20.75
190.1483 20.75
190.1806 20.75
190.209 20.75
190.239 20.75
190.2724 20.75
190.3057 20.75
190.339 20.75
190.3714 20.75
190.4033 20.75
190.4367 20.75
190.465 20.75
190.4959 20.75
190.5293 20.75
190.5626 20.75
190.5959 20.75
190.6293 20.75
190.6626 20.75
190.696 20.75
190.7262 20.75
190.7595 20.75
190.7929 20.75
190.8231 20.75
190.8525 20.75
190.8848 20.75
190.9182 20.75
190.9482 20.75
190.9778 20.75
191.0106 20.75
191.0394 20.75
191.0728 20.75
191.1061 20.75
191.138 20.75
191.1668 20.75
191.1974 20.75
191.2307 20.75
191.2626 20.75
191.2914 20.75
191.3248 20.75
191.3549 20.75
191.3882 20.75
191.4215 20.75
191.4512 20.75
191.4845 20.75
191.5178 20.75
191.5511 20.75
191.5804 20.75
191.6107 20.75
191.644 20.75
191.6773 20.75
191.7107 20.75
191.7391 20.75
191.7688 20.75
191.8022 20.75
191.8338 20.75
191.8671 20.75
191.8997 20.75
191.9323 20.75
191.9631 20.75
191.9921 20.75
192.0254 20.75
192.054 20.75
192.0874 20.75
192.1152 20.75
192.1465 20.75
192.1798 20.75
192.2101 20.75
192.2425 20.75
192.2757 20.75
192.3051 20.75
192.3385 20.75
192.368 20.75
192.4007 20.75
192.4296 20.75
192.4615 20.75
192.4948 20.75
192.5248 20.75
192.5533 20.75
192.5848 20.75
192.6142 20.75
192.6475 20.75
192.6808 20.75
192.7142 20.75
192.7439 20.75
192.7772 20.75
192.8105 20.75
192.8398 20.75
192.8683 20.75
192.9016 20.75
192.9301 20.75
192.9634 20.75
192.9944 20.75
193.0277 20.75
193.0602 20.75
193.0935 20.75
193.1268 20.75
193.158 20.75
193.188 20.75
193.2194 20.75
193.25 20.75
193.2833 20.75
193.3156 20.75
193.3488 20.75
193.3779 20.75
193.4092 20.75
193.4425 20.75
193.4758 20.75
193.5079 20.75
193.5413 20.75
193.5746 20.75
193.6079 20.75
193.6413 20.75
193.6746 20.75
193.7079 20.75
193.7413 20.75
193.7721 20.75
193.8054 20.75
193.8356 20.75
193.8685 20.75
193.9018 20.75
193.9352 20.75
193.9644 20.75
193.9977 20.75
194.0283 20.75
194.0616 20.75
194.0918 20.75
194.1217 20.75
194.1551 20.75
194.1884 20.75
194.2217 20.75
194.2551 20.75
194.2879 20.75
194.3174 20.75
194.3476 20.75
194.3809 20.75
194.4142 20.75
194.4443 20.75
194.4736 20.75
194.5069 20.75
194.5402 20.75
194.5697 20.75
194.603 20.75
194.6345 20.75
194.6653 20.75
194.6987 20.75
194.732 20.75
194.7643 20.75
194.7977 20.75
194.8306 20.75
194.864 20.75
194.8973 20.75
194.9275 20.75
194.9608 20.75
194.9942 20.75
195.0275 20.75
195.0567 20.75
195.0861 20.75
195.1153 20.75
195.1487 20.75
195.182 20.75
195.2147 20.75
195.2441 20.75
195.2742 20.75
195.3063 20.75
195.3396 20.75
195.373 20.75
195.4045 20.75
195.4332 20.75
195.4634 20.75
195.4967 20.75
195.5278 20.75
195.5611 20.75
195.5917 20.75
195.6211 20.75
195.6544 20.75
195.6829 20.75
195.7128 20.75
195.7461 20.75
195.7778 20.75
195.8111 20.75
195.8414 20.75
195.8711 20.75
195.9037 20.75
195.9371 20.75
195.9704 20.75
196.0002 20.75
196.0315 20.75
196.0616 20.75
196.0949 20.75
196.1283 20.75
196.1594 20.75
196.1895 20.75
196.2213 20.75
196.2546 20.75
196.288 20.75
196.3183 20.75
196.351 20.75
196.3809 20.75
196.4133 20.75
196.4466 20.75
196.4781 20.75
196.5102 20.75
196.5436 20.75
196.5751 20.75
196.6084 20.75
196.6418 20.75
196.673 20.75
196.7024 20.75
196.7335 20.75
196.7668 20.75
196.7977 20.75
196.8268 20.75
196.8601 20.75
196.8915 20.75
196.9248 20.75
196.9539 20.75
196.9872 20.75
197.0205 20.75
197.0538 20.75
197.0872 20.75
197.1166 20.75
197.1499 20.75
