時間[s] タイヤの舵角[deg]
0 0
0.02 2075
0.05333333 2075
0.08666666 2075
0.1109139 2075
0.1442472 2075
0.1775805 2075
0.2056066 2075
0.2301512 2075
0.259512 2075
0.2865202 2075
0.3109058 2075
0.3385729 2075
0.3644807 2075
0.3908768 2075
0.4150642 2075
0.4405077 2075
0.4738411 2075
0.4994287 2075
0.5277727 2075
0.5534577 2075
0.5799872 2075
0.6072094 2075
0.6328465 2075
0.6569422 2075
0.6834717 2075
0.7101848 2075
0.7351404 2075
0.7601469 2075
0.7904764 2075
0.8175036 2075
0.8449965 2075
0.8703784 2075
0.8963888 2075
0.9222441 2075
0.9476296 2075
0.9737911 2075
1.001419 2075
1.029676 2075
1.056505 2075
1.085849 2075
1.110855 2075
1.137879 2075
1.164485 2075
1.190326 2075
1.21683 2075
1.245693 2075
1.269968 2075
1.294472 2075
1.320995 2075
1.348063 2075
1.373547 2075
1.3984 2075
1.424171 2075
1.450386 2075
1.474497 2075
1.50091 2075
1.533747 2075
1.560277 2075
1.585184 2075
1.610994 2075
1.639574 2075
1.670017 2075
1.693161 2075
1.716585 2075
1.74298 2075
1.77115 2075
1.794761 2075
1.818918 2075
1.846042 2075
1.875156 2075
1.900053 2075
1.923535 2075
1.949641 2075
1.975992 2075
2.000909 2075
2.029005 2075
2.055568 2075
2.081582 2075
2.109702 2075
2.137944 2075
2.166501 2075
2.194277 2075
2.219167 2075
2.243871 2075
2.270108 2075
2.295238 2075
2.319987 2075
2.34303 2075
2.370527 2075
2.397156 2075
2.421329 2075
2.449083 2075
2.478475 2075
2.50645 2075
2.532341 2075
2.556289 2075
2.58311 2075
2.611619 2075
2.636495 2075
2.660557 2075
2.686576 2075
2.711184 2075
2.740984 2075
2.768811 2075
2.79768 2075
2.825395 2075
2.85336 2075
2.877501 2075
2.903641 2075
2.929818 2075
2.956671 2075
2.982114 2075
3.007391 2075
3.038368 2075
3.063122 2075
3.09246 2075
3.119655 2075
3.145219 2075
3.169904 2075
3.198286 2075
3.225188 2075
3.25343 2075
3.278502 2075
3.303701 2075
3.330661 2075
3.357191 2075
3.385809 2075
3.410583 2075
3.440493 2075
3.473282 2075
3.496403 2075
3.522526 2075
3.549166 2075
3.574816 2075
3.599724 2075
3.626014 2075
3.652979 2075
3.67772 2075
3.703192 2075
3.730564 2075
3.757485 2075
3.789298 2075
3.814966 2075
3.841465 2075
3.869966 2075
3.898149 2075
3.926447 2075
3.951969 2075
3.982105 2075
4.007611 2075
4.033422 2075
4.058763 2075
4.086447 2075
4.112839 2075
4.137827 2075
4.1635 2075
4.195077 2075
4.220854 2075
4.253474 2075
4.278645 2075
4.304733 2075
4.329528 2075
4.354785 2075
4.380546 2075
4.407067 2075
4.43249 2075
4.460556 2075
4.485469 2075
4.513277 2075
4.538986 2075
4.562809 2075
4.591455 2075
4.620436 2075
4.648618 2075
4.674468 2075
4.697769 2075
4.726155 2075
4.754536 2075
4.778198 2075
4.802795 2075
4.829511 2075
4.859762 2075
4.884111 2075
4.909248 2075
4.936389 2075
4.961414 2075
4.986429 2075
5.014485 2075
5.041445 2075
5.068418 2075
5.097285 2075
5.12184 2075
5.153879 2075
5.179202 2075
5.20545 2075
5.230443 2075
5.258094 2075
5.286932 2075
5.312709 2075
5.339352 2075
5.369925 2075
5.397653 2075
5.421017 2075
5.44518 2075
5.473395 2075
5.4983 2075
5.524879 2075
5.549376 2075
5.574353 2075
5.599688 2075
5.625851 2075
5.651525 2075
5.680573 2075
5.70651 2075
5.730891 2075
5.755252 2075
5.781613 2075
5.81078 2075
5.836898 2075
5.86229 2075
5.888468 2075
5.915317 2075
5.945244 2075
5.969835 2075
5.996047 2075
6.023499 2075
6.050045 2075
6.077382 2075
6.102998 2075
6.129016 2075
6.155919 2075
6.181113 2075
6.206813 2075
6.233442 2075
6.264646 2075
6.288169 2075
6.313294 2075
6.341183 2075
6.368297 2075
6.39242 2075
6.420554 2075
6.449676 2075
6.481207 2075
6.513868 2075
6.538474 2075
6.571807 2075
6.596106 2075
6.62176 2075
6.650136 2075
6.674779 2075
6.699434 2075
6.724322 2075
6.754548 2075
6.784354 2075
6.809158 2075
6.83472 2075
6.86378 2075
6.891455 2075
6.916241 2075
6.94097 2075
6.966806 2075
6.993136 2075
7.025677 2075
7.055885 2075
7.082529 2075
7.107918 2075
7.133018 2075
7.164116 2075
7.191726 2075
7.217404 2075
7.243721 2075
7.268246 2075
7.294461 2075
7.323748 2075
7.350653 2075
7.379465 2075
7.406897 2075
7.432098 2075
7.457242 2075
7.481528 2075
7.510286 2075
7.537451 2075
7.562416 2075
7.586088 2075
7.613811 2075
7.639184 2075
7.663309 2075
7.691331 2075
7.71641 2075
7.743749 2075
7.773223 2075
7.79641 2075
7.821865 2075
7.847363 2075
7.874543 2075
7.898174 2075
7.924266 2075
7.949974 2075
7.979323 2075
8.004221 2075
8.033579 2075
8.060937 2075
8.08801 2075
8.112453 2075
8.138541 2075
8.164337 2075
8.189193 2075
8.212331 2075
8.239257 2075
8.267465 2075
8.291434 2075
8.318641 2075
8.349076 2075
8.377252 2075
8.403141 2075
8.428485 2075
8.454843 2075
8.482348 2075
8.509663 2075
8.534464 2075
8.561322 2075
8.588727 2075
8.613324 2075
8.641213 2075
8.668358 2075
8.694691 2075
8.723046 2075
8.747893 2075
8.774646 2075
8.800563 2075
8.824944 2075
8.848246 2075
8.875857 2075
8.902978 2075
8.927883 2075
8.952833 2075
8.984239 2075
9.00983 2075
9.034564 2075
9.059909 2075
9.086454 2075
9.118157 2075
9.14529 2075
9.170493 2075
9.199132 2075
9.225838 2075
9.25012 2075
9.276771 2075
9.303108 2075
9.333537 2075
9.357307 2075
9.385592 2075
9.411382 2075
9.437599 2075
9.463184 2075
9.491689 2075
9.519666 2075
9.545205 2075
9.570825 2075
9.597251 2075
9.626603 2075
9.656623 2075
9.681789 2075
9.713855 2075
9.740511 2075
9.76657 2075
9.791667 2075
9.817383 2075
9.844949 2075
9.87677 2075
9.901097 2075
9.925127 2075
9.951585 2075
9.979494 2075
10.00555 2075
10.03254 2075
10.06089 2075
10.09127 2075
10.1207 2075
10.14512 2075
10.17288 2075
10.19832 2075
10.22356 2075
10.24773 2075
10.27484 2075
10.30202 2075
10.32867 2075
10.35283 2075
10.3813 2075
10.40756 2075
10.43625 2075
10.4599 2075
10.48701 2075
10.51214 2075
10.53859 2075
10.56385 2075
10.5905 2075
10.62089 2075
10.64561 2075
10.67065 2075
10.69606 2075
10.72357 2075
10.75465 2075
10.78092 2075
10.80832 2075
10.8372 2075
10.86185 2075
10.88771 2075
10.91607 2075
10.9421 2075
10.96923 2075
10.99441 2075
11.02519 2075
11.05249 2075
11.07818 2075
11.10757 2075
11.13513 2075
11.16207 2075
11.18705 2075
11.21209 2075
11.24058 2075
11.26557 2075
11.29571 2075
11.32306 2075
11.35106 2075
11.37994 2075
11.40522 2075
11.43011 2075
11.45737 2075
11.48413 2075
11.50868 2075
11.53221 2075
11.55934 2075
11.59027 2075
11.61524 2075
11.6409 2075
11.66743 2075
11.69459 2075
11.72275 2075
11.74838 2075
11.7745 2075
11.80039 2075
11.83041 2075
11.85973 2075
11.88646 2075
11.91616 2075
11.94412 2075
11.97006 2075
11.99648 2075
12.02356 2075
12.0479 2075
12.07708 2075
12.10725 2075
12.13184 2075
12.15676 2075
12.18177 2075
12.21073 2075
12.2381 2075
12.2651 2075
12.28963 2075
12.31878 2075
12.34595 2075
12.37184 2075
12.4001 2075
12.42973 2075
12.45561 2075
12.48084 2075
12.50656 2075
12.53519 2075
12.56081 2075
12.58597 2075
12.61193 2075
12.63855 2075
12.66368 2075
12.68932 2075
12.71902 2075
12.74704 2075
12.77212 2075
12.79746 2075
12.82428 2075
12.85437 2075
12.88092 2075
12.91238 2075
12.93721 2075
12.96828 2075
12.99355 2075
13.0205 2075
13.04618 2075
13.07392 2075
13.10701 2075
13.13061 2075
13.15472 2075
13.18093 2075
13.20703 2075
13.2313 2075
13.2557 2075
13.28657 2075
13.31222 2075
13.33888 2075
13.36513 2075
13.39193 2075
13.41665 2075
13.44568 2075
13.47162 2075
13.49816 2075
13.52343 2075
13.54921 2075
13.57437 2075
13.59924 2075
13.62744 2075
13.65164 2075
13.68018 2075
13.7111 2075
13.73598 2075
13.76028 2075
13.78543 2075
13.81342 2075
13.84356 2075
13.86765 2075
13.89709 2075
13.92321 2075
13.95178 2075
13.97941 2075
14.00669 2075
14.03841 2075
14.0643 2075
14.08833 2075
14.11621 2075
14.14138 2075
14.16857 2075
14.19214 2075
14.21901 2075
14.24833 2075
14.27852 2075
14.30411 2075
14.32919 2075
14.35874 2075
14.38512 2075
14.41088 2075
14.43494 2075
14.46061 2075
14.48713 2075
14.51135 2075
14.53713 2075
14.56667 2075
14.59489 2075
14.62061 2075
14.65088 2075
14.67759 2075
14.70823 2075
14.73304 2075
14.7583 2075
14.78423 2075
14.8116 2075
14.83778 2075
14.86269 2075
14.8881 2075
14.91472 2075
14.9399 2075
14.96574 2075
14.99657 2075
15.02408 2075
15.05258 2075
15.07768 2075
15.10379 2075
15.13005 2075
15.15572 2075
15.18065 2075
15.20697 2075
15.23453 2075
15.25849 2075
15.28321 2075
15.30882 2075
15.33516 2075
15.36366 2075
15.38786 2075
15.41699 2075
15.44333 2075
15.47479 2075
15.49903 2075
15.52593 2075
15.55379 2075
15.57885 2075
15.6093 2075
15.64264 2075
15.67027 2075
15.69402 2075
15.72034 2075
15.74647 2075
15.7725 2075
15.79802 2075
15.82622 2075
15.85227 2075
15.87961 2075
15.90319 2075
15.92649 2075
15.9519 2075
15.98426 2075
16.01448 2075
16.04008 2075
16.0668 2075
16.09809 2075
16.12485 2075
16.14961 2075
16.17497 2075
16.20086 2075
16.22493 2075
16.25117 2075
16.27938 2075
16.3059 2075
16.33505 2075
16.35952 2075
16.38659 2075
16.41209 2075
16.43677 2075
16.46603 2075
16.49607 2075
16.52258 2075
16.54806 2075
16.57873 2075
16.6096 2075
16.63725 2075
16.66135 2075
16.68678 2075
16.71754 2075
16.74599 2075
16.77071 2075
16.79543 2075
16.82277 2075
16.84995 2075
16.87429 2075
16.90237 2075
16.92783 2075
16.95348 2075
16.97914 2075
17.0037 2075
17.03611 2075
17.06133 2075
17.087 2075
17.11119 2075
17.13782 2075
17.16503 2075
17.19541 2075
17.22124 2075
17.24858 2075
17.27499 2075
17.30274 2075
17.33607 2075
17.36127 2075
17.39041 2075
17.41655 2075
17.44348 2075
17.46939 2075
17.496 2075
17.52182 2075
17.55138 2075
17.57719 2075
17.60285 2075
17.62743 2075
17.65585 2075
17.68397 2075
17.71199 2075
17.73676 2075
17.76286 2075
17.79535 2075
17.82421 2075
17.8535 2075
17.87987 2075
17.90722 2075
17.93469 2075
17.95867 2075
17.98533 2075
18.01085 2075
18.03862 2075
18.06321 2075
18.08911 2075
18.11695 2075
18.14288 2075
18.1673 2075
18.19073 2075
18.22121 2075
18.25189 2075
18.28421 2075
18.31293 2075
18.33849 2075
18.36506 2075
18.3892 2075
18.41603 2075
18.44246 2075
18.47054 2075
18.49497 2075
18.5193 2075
18.54486 2075
18.57016 2075
18.59523 2075
18.62732 2075
18.65575 2075
18.6829 2075
18.71623 2075
18.74035 2075
18.76723 2075
18.79267 2075
18.81878 2075
18.84299 2075
18.86939 2075
18.90087 2075
18.92424 2075
18.94991 2075
18.97779 2075
19.0029 2075
19.02892 2075
19.0536 2075
19.0806 2075
19.10615 2075
19.13503 2075
19.16009 2075
19.18988 2075
19.21704 2075
19.24851 2075
19.27447 2075
19.30164 2075
19.33173 2075
19.35711 2075
19.38175 2075
19.40773 2075
19.43229 2075
19.45625 2075
19.48566 2075
19.51292 2075
19.53819 2075
19.56155 2075
19.58996 2075
19.61603 2075
19.64216 2075
19.66617 2075
19.69098 2075
19.72253 2075
19.74878 2075
19.77689 2075
19.80092 2075
19.8286 2075
19.85543 2075
19.88095 2075
19.90532 2075
19.93015 2075
19.95865 2075
19.98317 2075
20.00842 2075
20.04175 2075
20.06811 2075
20.09237 2075
20.12371 2075
20.15111 2075
20.18215 2075
20.20946 2075
20.23595 2075
20.26179 2075
20.28981 2075
20.32012 2075
20.35245 2075
20.3806 2075
20.40525 2075
20.43527 2075
20.45909 2075
20.48472 2075
20.51081 2075
20.53593 2075
20.56164 2075
20.58815 2075
20.6146 2075
20.63916 2075
20.66464 2075
20.69482 2075
20.72115 2075
20.74606 2075
20.77145 2075
20.79759 2075
20.82366 2075
20.85079 2075
20.87755 2075
20.90405 2075
20.93329 2075
20.95718 2075
20.98821 2075
21.01511 2075
21.04109 2075
21.06627 2075
21.09104 2075
21.11763 2075
21.14322 2075
21.16786 2075
21.1932 2075
21.22108 2075
21.25061 2075
21.27524 2075
21.30086 2075
21.33122 2075
21.35932 2075
21.38401 2075
21.40831 2075
21.43485 2075
21.46233 2075
21.48949 2075
21.51304 2075
21.53897 2075
21.56679 2075
21.59151 2075
21.61759 2075
21.64353 2075
21.6699 2075
21.69895 2075
21.7226 2075
21.74881 2075
21.77631 2075
21.80296 2075
21.82765 2075
21.85476 2075
21.88261 2075
21.90939 2075
21.93455 2075
21.96684 2075
21.99477 2075
22.02295 2075
22.05344 2075
22.07914 2075
22.10434 2075
22.13218 2075
22.15756 2075
22.18368 2075
22.20832 2075
22.2321 2075
22.25616 2075
22.28424 2075
22.30857 2075
22.33534 2075
22.36092 2075
22.38693 2075
22.41328 2075
22.43699 2075
22.46282 2075
22.49517 2075
22.52218 2075
22.54725 2075
22.5755 2075
22.60389 2075
22.63169 2075
22.65697 2075
22.68643 2075
22.71212 2075
22.73933 2075
22.76698 2075
22.79188 2075
22.81833 2075
22.84472 2075
22.86905 2075
22.89912 2075
22.92965 2075
22.95607 2075
22.98305 2075
23.0095 2075
23.04147 2075
23.06811 2075
23.09362 2075
23.11951 2075
23.14714 2075
23.17456 2075
23.20322 2075
23.22988 2075
23.26315 2075
23.29021 2075
23.31414 2075
23.33993 2075
23.36634 2075
23.39269 2075
23.41715 2075
23.44328 2075
23.47265 2075
23.50007 2075
23.52633 2075
23.55067 2075
23.58401 2075
23.60926 2075
23.63336 2075
23.65775 2075
23.68424 2075
23.71026 2075
23.73535 2075
23.76021 2075
23.78598 2075
23.81701 2075
23.84671 2075
23.87148 2075
23.89986 2075
23.93135 2075
23.95707 2075
23.98501 2075
24.01105 2075
24.03855 2075
24.06624 2075
24.09196 2075
24.11907 2075
24.14464 2075
24.17114 2075
24.20113 2075
24.2273 2075
24.25348 2075
24.28233 2075
24.3069 2075
24.34023 2075
24.36813 2075
24.39363 2075
24.41895 2075
24.44462 2075
24.47021 2075
24.49756 2075
24.52679 2075
24.55248 2075
24.57959 2075
24.61114 2075
24.63864 2075
24.66592 2075
24.69275 2075
24.71834 2075
24.746 2075
24.77317 2075
24.80089 2075
24.82577 2075
24.85432 2075
24.87972 2075
24.90596 2075
24.93095 2075
24.95572 2075
24.98799 2075
25.01887 2075
25.04431 2075
25.06908 2075
25.09527 2075
25.12301 2075
25.1481 2075
25.1748 2075
25.20458 2075
25.23066 2075
25.25524 2075
25.2838 2075
25.31152 2075
25.33662 2075
25.36694 2075
25.39092 2075
25.41686 2075
25.44288 2075
25.46714 2075
25.49456 2075
25.51988 2075
25.54445 2075
25.56862 2075
25.59508 2075
25.62125 2075
25.64804 2075
25.67237 2075
25.69772 2075
25.72397 2075
25.75644 2075
25.78163 2075
25.80717 2075
25.83513 2075
25.86097 2075
25.88552 2075
25.90968 2075
25.93551 2075
25.96222 2075
25.99158 2075
26.02081 2075
26.04662 2075
26.07227 2075
26.09831 2075
26.12781 2075
26.15521 2075
26.1881 2075
26.21139 2075
26.2383 2075
26.2647 2075
26.29394 2075
26.31831 2075
26.34304 2075
26.36987 2075
26.39519 2075
26.42497 2075
26.4489 2075
26.48196 2075
26.50697 2075
26.53055 2075
26.55534 2075
26.58304 2075
26.61066 2075
26.63533 2075
26.65952 2075
26.69057 2075
26.71673 2075
26.74494 2075
26.77111 2075
26.80097 2075
26.82837 2075
26.8531 2075
26.87867 2075
26.90412 2075
26.9313 2075
26.95485 2075
26.98049 2075
27.01203 2075
27.04 2075
27.06474 2075
27.09006 2075
27.11525 2075
27.14176 2075
27.16864 2075
27.19437 2075
27.22062 2075
27.24712 2075
27.27191 2075
27.29829 2075
27.32725 2075
27.35448 2075
27.37908 2075
27.40899 2075
27.43476 2075
27.46171 2075
27.48907 2075
27.51495 2075
27.54156 2075
27.56771 2075
27.59755 2075
27.62245 2075
27.6492 2075
27.6761 2075
27.70165 2075
27.72692 2075
27.75301 2075
27.78178 2075
27.81086 2075
27.83611 2075
27.86148 2075
27.88768 2075
27.91197 2075
27.9374 2075
27.96767 2075
27.99444 2075
28.02088 2075
28.04588 2075
28.07122 2075
28.1012 2075
28.12598 2075
28.14958 2075
28.17549 2075
28.20162 2075
28.22647 2075
28.25288 2075
28.27968 2075
28.30612 2075
28.33443 2075
28.35925 2075
28.3863 2075
28.41252 2075
28.43783 2075
28.46397 2075
28.49107 2075
28.51693 2075
28.54159 2075
28.56544 2075
28.59551 2075
28.62164 2075
28.65023 2075
28.67586 2075
28.70576 2075
28.73237 2075
28.75846 2075
28.79009 2075
28.81602 2075
28.84147 2075
28.86776 2075
28.89264 2075
28.91765 2075
28.94372 2075
28.96875 2075
28.99386 2075
29.02532 2075
29.05865 2075
29.08425 2075
29.11127 2075
29.14076 2075
29.16802 2075
29.19258 2075
29.21733 2075
29.24475 2075
29.27071 2075
29.29592 2075
29.31977 2075
29.34472 2075
29.37227 2075
29.39973 2075
29.42485 2075
29.45321 2075
29.48432 2075
29.50949 2075
29.53644 2075
29.5618 2075
29.58707 2075
29.61563 2075
29.63958 2075
29.66585 2075
29.69572 2075
29.72079 2075
29.74512 2075
29.77108 2075
29.80081 2075
29.829 2075
29.85274 2075
29.87793 2075
29.90426 2075
29.9279 2075
29.95275 2075
29.97791 2075
30.00537 2075
30.03534 2075
30.06036 2075
30.0892 2075
30.11524 2075
30.14075 2075
30.16589 2075
30.19151 2075
30.21859 2075
30.24225 2075
30.27558 2075
30.30544 2075
30.33055 2075
30.3551 2075
30.37888 2075
30.41164 2075
30.43799 2075
30.46098 2075
30.4874 2075
30.51539 2075
30.54228 2075
30.56733 2075
30.59786 2075
30.62737 2075
30.65185 2075
30.67695 2075
30.70114 2075
30.72762 2075
30.75447 2075
30.77808 2075
30.80784 2075
30.83313 2075
30.85881 2075
30.88415 2075
30.90831 2075
30.93452 2075
30.96256 2075
30.98728 2075
31.01507 2075
31.04391 2075
31.06974 2075
31.09528 2075
31.12081 2075
31.15201 2075
31.17703 2075
31.2016 2075
31.22629 2075
31.25356 2075
31.27887 2075
31.30306 2075
31.32783 2075
31.35525 2075
31.38368 2075
31.40898 2075
31.43333 2075
31.4582 2075
31.48482 2075
31.5132 2075
31.53748 2075
31.56383 2075
31.59474 2075
31.62042 2075
31.64496 2075
31.67058 2075
31.69927 2075
31.73034 2075
31.76048 2075
31.78741 2075
31.81228 2075
31.83759 2075
31.86105 2075
31.88738 2075
31.91168 2075
31.93541 2075
31.9598 2075
31.98626 2075
32.01456 2075
32.0428 2075
32.06743 2075
32.09277 2075
32.11878 2075
32.14225 2075
32.16639 2075
32.19375 2075
32.21965 2075
32.24484 2075
32.27047 2075
32.29776 2075
32.32572 2075
32.34978 2075
32.37353 2075
32.4043 2075
32.42988 2075
32.45314 2075
32.47783 2075
32.50293 2075
32.53001 2075
32.55851 2075
32.58303 2075
32.60892 2075
32.63602 2075
32.66538 2075
32.69546 2075
32.72219 2075
32.74718 2075
32.77234 2075
32.79823 2075
32.82575 2075
32.85203 2075
32.87581 2075
32.90285 2075
32.9287 2075
32.95452 2075
32.97915 2075
33.0054 2075
33.03098 2075
33.05686 2075
33.082 2075
33.1063 2075
33.13153 2075
33.16371 2075
33.18748 2075
33.21062 2075
33.23689 2075
33.26644 2075
33.29531 2075
33.31977 2075
33.34591 2075
33.37345 2075
33.39703 2075
33.42199 2075
33.44701 2075
33.47514 2075
33.50135 2075
33.52571 2075
33.55072 2075
33.57625 2075
33.60198 2075
33.63139 2075
33.65708 2075
33.68355 2075
33.7106 2075
33.73626 2075
33.76187 2075
33.78774 2075
33.81143 2075
33.83619 2075
33.86694 2075
33.8945 2075
33.92087 2075
33.9454 2075
33.97124 2075
33.99667 2075
34.02312 2075
34.04991 2075
34.07837 2075
34.10455 2075
34.12779 2075
34.15247 2075
34.18087 2075
34.20513 2075
34.22971 2075
34.25484 2075
34.28168 2075
34.30786 2075
34.3355 2075
34.36038 2075
34.38651 2075
34.41677 2075
34.44402 2075
34.46862 2075
34.4957 2075
34.52061 2075
34.54478 2075
34.56989 2075
34.59876 2075
34.62282 2075
34.64701 2075
34.67008 2075
34.696 2075
34.72267 2075
34.74818 2075
34.77668 2075
34.80244 2075
34.83298 2075
34.86148 2075
34.88787 2075
34.91549 2075
34.94094 2075
34.96448 2075
34.98938 2075
35.0172 2075
35.0434 2075
35.06839 2075
35.09345 2075
35.12077 2075
35.14598 2075
35.17457 2075
35.19905 2075
35.22934 2075
35.2552 2075
35.28035 2075
35.30777 2075
35.33428 2075
35.36206 2075
35.38766 2075
35.41204 2075
35.43777 2075
35.46826 2075
35.49435 2075
35.51941 2075
35.54559 2075
35.57573 2075
35.60152 2075
35.62516 2075
35.65374 2075
35.67844 2075
35.70584 2075
35.73016 2075
35.75619 2075
35.78248 2075
35.80735 2075
35.83531 2075
35.86071 2075
35.88876 2075
35.91631 2075
35.94459 2075
35.97224 2075
36.00262 2075
36.02812 2075
36.05245 2075
36.07861 2075
36.10468 2075
36.12971 2075
36.15552 2075
36.1877 2075
36.21455 2075
36.24318 2075
36.26869 2075
36.29983 2075
36.32485 2075
36.35067 2075
36.37456 2075
36.40371 2075
36.4308 2075
36.45728 2075
36.4846 2075
36.51076 2075
36.53828 2075
36.56358 2075
36.59327 2075
36.62019 2075
36.64873 2075
36.67287 2075
36.69716 2075
36.72543 2075
36.75262 2075
36.77652 2075
36.80196 2075
36.82857 2075
36.85461 2075
36.87932 2075
36.90402 2075
36.92974 2075
36.95521 2075
36.98187 2075
37.00775 2075
37.03633 2075
37.06247 2075
37.08843 2075
37.11553 2075
37.14232 2075
37.17186 2075
37.19688 2075
37.22239 2075
37.24772 2075
37.27694 2075
37.30335 2075
37.33011 2075
37.35595 2075
37.38097 2075
37.40559 2075
37.43084 2075
37.45628 2075
37.4814 2075
37.51374 2075
37.54115 2075
37.56864 2075
37.59654 2075
37.62152 2075
37.64603 2075
37.67175 2075
37.69767 2075
37.72332 2075
37.75005 2075
37.77696 2075
37.8039 2075
37.82872 2075
37.85484 2075
37.87954 2075
37.91288 2075
37.94116 2075
37.96639 2075
37.99387 2075
38.02145 2075
38.04586 2075
38.06988 2075
38.10225 2075
38.12764 2075
38.15207 2075
38.17884 2075
38.20557 2075
38.23158 2075
38.25566 2075
38.28284 2075
38.30986 2075
38.33583 2075
38.36183 2075
38.38619 2075
38.4138 2075
38.43914 2075
38.46424 2075
38.48847 2075
38.51426 2075
38.54313 2075
38.57219 2075
38.59735 2075
38.6243 2075
38.65104 2075
38.67569 2075
38.69955 2075
38.72792 2075
38.75616 2075
38.78069 2075
38.807 2075
38.83499 2075
38.86164 2075
38.88764 2075
38.9157 2075
38.94852 2075
38.97472 2075
38.99923 2075
39.0254 2075
39.05178 2075
39.07852 2075
39.10476 2075
39.13039 2075
39.16199 2075
39.18946 2075
39.21558 2075
39.24029 2075
39.26809 2075
39.29522 2075
39.32137 2075
39.34723 2075
39.37514 2075
39.40435 2075
39.42735 2075
39.45157 2075
39.47824 2075
39.50474 2075
39.53277 2075
39.5661 2075
39.59167 2075
39.61917 2075
39.64442 2075
39.67023 2075
39.70268 2075
39.72782 2075
39.75657 2075
39.78072 2075
39.80704 2075
39.83882 2075
39.8637 2075
39.89358 2075
39.92012 2075
39.94574 2075
39.96962 2075
39.99405 2075
40.02738 2075
40.05254 2075
40.07647 2075
40.10542 2075
40.13448 2075
40.16764 2075
40.19339 2075
40.22393 2075
40.25247 2075
40.28366 2075
40.309 2075
40.33429 2075
40.36184 2075
40.38819 2075
40.41193 2075
40.43649 2075
40.46161 2075
40.48738 2075
40.51087 2075
40.53495 2075
40.56036 2075
40.58744 2075
40.61266 2075
40.64018 2075
40.66991 2075
40.69556 2075
40.72364 2075
40.75622 2075
40.78316 2075
40.81249 2075
40.83585 2075
40.86044 2075
40.88555 2075
40.91472 2075
40.93823 2075
40.96092 2075
40.9868 2075
41.01218 2075
41.0365 2075
41.05991 2075
41.09047 2075
41.11948 2075
41.14362 2075
41.16792 2075
41.19313 2075
41.2182 2075
41.24331 2075
41.2675 2075
41.29278 2075
41.31807 2075
41.34183 2075
41.36983 2075
41.39497 2075
41.42163 2075
41.44803 2075
41.47262 2075
41.49943 2075
41.52468 2075
41.54975 2075
41.57344 2075
41.60015 2075
41.62675 2075
41.65389 2075
41.67998 2075
41.71143 2075
41.73709 2075
41.76042 2075
41.78591 2075
41.81221 2075
41.83773 2075
41.86189 2075
41.8863 2075
41.9142 2075
41.9393 2075
41.96321 2075
41.99158 2075
42.0214 2075
42.04828 2075
42.07317 2075
42.09711 2075
42.12296 2075
42.14844 2075
42.17318 2075
42.19715 2075
42.22325 2075
42.25212 2075
42.27632 2075
42.3008 2075
42.33033 2075
42.35603 2075
42.38001 2075
42.40476 2075
42.43382 2075
42.4607 2075
42.48859 2075
42.51227 2075
42.53768 2075
42.5631 2075
42.58805 2075
42.61219 2075
42.63761 2075
42.66867 2075
42.69729 2075
42.72431 2075
42.74918 2075
42.7747 2075
42.80238 2075
42.82948 2075
42.85458 2075
42.88512 2075
42.9096 2075
42.93472 2075
42.96004 2075
42.98871 2075
43.01904 2075
43.04437 2075
43.06945 2075
43.09605 2075
43.11988 2075
43.144 2075
43.16933 2075
43.19862 2075
43.22273 2075
43.25031 2075
43.27666 2075
43.30211 2075
43.32838 2075
43.35251 2075
43.37828 2075
43.40435 2075
43.43029 2075
43.45633 2075
43.48293 2075
43.50993 2075
43.53908 2075
43.56244 2075
43.58857 2075
43.61434 2075
43.63974 2075
43.66619 2075
43.69253 2075
43.72503 2075
43.74883 2075
43.7727 2075
43.80274 2075
43.83208 2075
43.85966 2075
43.88861 2075
43.91375 2075
43.93895 2075
43.96247 2075
43.98719 2075
44.01595 2075
44.04161 2075
44.06629 2075
44.09452 2075
44.12189 2075
44.14769 2075
44.17213 2075
44.19553 2075
44.22223 2075
44.25081 2075
44.27481 2075
44.29927 2075
44.32769 2075
44.35789 2075
44.38275 2075
44.40902 2075
44.43514 2075
44.46597 2075
44.4902 2075
44.51591 2075
44.54414 2075
44.57001 2075
44.60017 2075
44.6256 2075
44.65089 2075
44.6768 2075
44.70296 2075
44.72741 2075
44.75602 2075
44.78119 2075
44.80878 2075
44.83284 2075
44.86271 2075
44.88926 2075
44.91286 2075
44.93834 2075
44.96333 2075
44.99229 2075
45.01919 2075
45.04639 2075
45.0739 2075
45.10275 2075
45.12724 2075
45.15172 2075
45.17703 2075
45.20288 2075
45.22721 2075
45.25415 2075
45.27945 2075
45.31279 2075
45.33652 2075
45.35975 2075
45.38699 2075
45.41238 2075
45.43712 2075
45.46347 2075
45.48936 2075
45.51751 2075
45.5448 2075
45.56867 2075
45.59415 2075
45.62017 2075
45.64404 2075
45.67215 2075
45.70103 2075
45.72767 2075
45.75311 2075
45.7764 2075
45.80119 2075
45.8264 2075
45.85249 2075
45.87643 2075
45.90181 2075
45.92749 2075
45.95198 2075
45.97594 2075
46.00331 2075
46.03 2075
46.05596 2075
46.08052 2075
46.10763 2075
46.13319 2075
46.15769 2075
46.186 2075
46.21249 2075
46.23796 2075
46.26281 2075
46.28665 2075
46.31412 2075
46.34361 2075
46.37097 2075
46.3953 2075
46.42371 2075
46.44918 2075
46.47369 2075
46.4981 2075
46.52361 2075
46.54911 2075
46.57344 2075
46.60159 2075
46.62678 2075
46.65424 2075
46.67934 2075
46.70527 2075
46.73324 2075
46.76273 2075
46.7889 2075
46.81432 2075
46.84059 2075
46.86608 2075
46.89112 2075
46.91558 2075
46.94095 2075
46.96678 2075
46.99461 2075
47.02195 2075
47.04888 2075
47.07494 2075
47.10261 2075
47.12643 2075
47.15422 2075
47.18269 2075
47.20813 2075
47.23294 2075
47.25806 2075
47.28314 2075
47.3077 2075
47.33251 2075
47.36219 2075
47.38747 2075
47.41258 2075
47.43651 2075
47.46315 2075
47.48835 2075
47.5126 2075
47.53656 2075
47.56254 2075
47.59152 2075
47.61972 2075
47.64346 2075
47.66931 2075
47.69522 2075
47.72366 2075
47.74913 2075
47.77469 2075
47.80297 2075
47.82759 2075
47.85471 2075
47.88756 2075
47.91714 2075
47.9408 2075
47.96539 2075
47.99063 2075
48.02002 2075
48.0447 2075
48.06874 2075
48.09502 2075
48.1256 2075
48.14947 2075
48.17358 2075
48.1991 2075
48.2252 2075
48.25108 2075
48.27701 2075
48.30397 2075
48.33024 2075
48.35587 2075
48.38045 2075
48.41079 2075
48.43599 2075
48.4636 2075
48.48765 2075
48.51372 2075
48.53891 2075
48.56685 2075
48.59125 2075
48.61656 2075
48.64463 2075
48.67216 2075
48.69715 2075
48.72647 2075
48.75967 2075
48.78389 2075
48.80881 2075
48.83431 2075
48.86151 2075
48.88555 2075
48.91164 2075
48.94389 2075
48.96891 2075
48.99497 2075
49.02826 2075
49.05769 2075
49.08653 2075
49.11068 2075
49.13477 2075
49.16373 2075
49.18893 2075
49.21397 2075
49.24112 2075
49.26689 2075
49.29249 2075
49.32146 2075
49.3518 2075
49.37741 2075
49.40293 2075
49.42711 2075
49.45255 2075
49.47799 2075
49.50562 2075
49.53323 2075
49.55693 2075
49.58284 2075
49.60806 2075
49.63317 2075
49.66135 2075
49.68981 2075
49.7171 2075
49.74079 2075
49.76545 2075
49.79381 2075
49.81897 2075
49.84253 2075
49.86994 2075
49.89765 2075
49.92795 2075
49.95846 2075
49.98333 2075
50.01284 2075
50.04254 2075
50.06679 2075
50.0923 2075
50.12058 2075
50.14608 2075
50.17523 2075
50.19946 2075
50.22873 2075
50.25361 2075
50.27736 2075
50.30321 2075
50.33068 2075
50.3569 2075
50.38414 2075
50.40869 2075
50.43569 2075
50.46102 2075
50.48512 2075
50.51197 2075
50.5379 2075
50.56558 2075
50.59089 2075
50.61529 2075
50.64277 2075
50.67133 2075
50.6963 2075
50.72109 2075
50.7459 2075
50.77543 2075
50.8006 2075
50.82673 2075
50.85151 2075
50.88078 2075
50.90581 2075
50.93032 2075
50.95903 2075
50.98513 2075
51.01109 2075
51.03537 2075
51.06087 2075
51.09152 2075
51.11639 2075
51.14173 2075
51.16708 2075
51.19926 2075
51.22301 2075
51.24743 2075
51.27348 2075
51.29947 2075
51.32554 2075
51.35263 2075
51.3838 2075
51.40895 2075
51.43374 2075
51.4594 2075
51.48611 2075
51.51081 2075
51.53468 2075
51.5588 2075
51.5856 2075
51.61057 2075
51.63471 2075
51.65844 2075
51.68392 2075
51.71243 2075
51.7374 2075
51.76155 2075
51.78802 2075
51.81291 2075
51.83857 2075
51.86215 2075
51.88971 2075
51.91601 2075
51.94523 2075
51.96992 2075
51.99894 2075
52.02972 2075
52.05407 2075
52.07761 2075
52.1027 2075
52.12808 2075
52.15417 2075
52.17873 2075
52.20979 2075
52.24075 2075
52.26511 2075
52.28885 2075
52.31398 2075
52.34491 2075
52.36814 2075
52.39234 2075
52.4177 2075
52.44823 2075
52.47218 2075
52.49801 2075
52.52811 2075
52.5536 2075
52.57716 2075
52.60352 2075
52.62925 2075
52.65527 2075
52.68387 2075
52.70774 2075
52.73368 2075
52.75888 2075
52.78382 2075
52.8079 2075
52.83495 2075
52.86329 2075
52.88715 2075
52.91059 2075
52.93638 2075
52.96189 2075
52.98861 2075
53.0137 2075
53.04467 2075
53.07039 2075
53.10213 2075
53.12694 2075
53.15748 2075
53.18294 2075
53.20665 2075
53.23702 2075
53.26386 2075
53.28819 2075
53.31169 2075
53.33661 2075
53.36263 2075
53.38794 2075
53.41539 2075
53.44567 2075
53.47392 2075
53.50032 2075
53.5237 2075
53.54956 2075
53.57594 2075
53.60321 2075
53.62976 2075
53.65386 2075
53.68528 2075
53.71367 2075
53.7374 2075
53.76281 2075
53.78804 2075
53.81274 2075
53.83652 2075
53.86168 2075
53.88737 2075
53.91329 2075
53.93709 2075
53.96138 2075
53.98819 2075
54.02022 2075
54.04517 2075
54.0706 2075
54.09784 2075
54.12578 2075
54.15236 2075
54.1762 2075
54.20311 2075
54.22845 2075
54.25755 2075
54.28056 2075
54.30851 2075
54.33456 2075
54.35889 2075
54.38272 2075
54.40763 2075
54.43562 2075
54.4631 2075
54.49006 2075
54.51613 2075
54.54046 2075
54.56572 2075
54.59029 2075
54.62136 2075
54.64604 2075
54.67022 2075
54.6946 2075
54.72417 2075
54.75233 2075
54.7762 2075
54.80008 2075
54.82564 2075
54.852 2075
54.87589 2075
54.89982 2075
54.92635 2075
54.95174 2075
54.97998 2075
55.00668 2075
55.03225 2075
55.06171 2075
55.08618 2075
55.11011 2075
55.13591 2075
55.16325 2075
55.18746 2075
55.21149 2075
55.23779 2075
55.26363 2075
55.29116 2075
55.31474 2075
55.34105 2075
55.36621 2075
55.39001 2075
55.41864 2075
55.4507 2075
55.47785 2075
55.50166 2075
55.52871 2075
55.55412 2075
55.5789 2075
55.60408 2075
55.62859 2075
55.65749 2075
55.68367 2075
55.70903 2075
55.73294 2075
55.75837 2075
55.78878 2075
55.81372 2075
55.83747 2075
55.86221 2075
55.88712 2075
55.91031 2075
55.93421 2075
55.9589 2075
55.98796 2075
56.01369 2075
56.03967 2075
56.06431 2075
56.09115 2075
56.11456 2075
56.13939 2075
56.16435 2075
56.19112 2075
56.21676 2075
56.24097 2075
56.27051 2075
56.29868 2075
56.32233 2075
56.3487 2075
56.37446 2075
56.40274 2075
56.42966 2075
56.45329 2075
56.48076 2075
56.50818 2075
56.53109 2075
56.55707 2075
56.58913 2075
56.61985 2075
56.64489 2075
56.66974 2075
56.69818 2075
56.72605 2075
56.75311 2075
56.77704 2075
56.80729 2075
56.83484 2075
56.86174 2075
56.88926 2075
56.91421 2075
56.93939 2075
56.96289 2075
56.98653 2075
57.01654 2075
57.04157 2075
57.06707 2075
57.09446 2075
57.11989 2075
57.1448 2075
57.16861 2075
57.19333 2075
57.21987 2075
57.24525 2075
57.26952 2075
57.29376 2075
57.32239 2075
57.34714 2075
57.37611 2075
57.40009 2075
57.42723 2075
57.45269 2075
57.48003 2075
57.50636 2075
57.5309 2075
57.56082 2075
57.58558 2075
57.61219 2075
57.63651 2075
57.66259 2075
57.68723 2075
57.71048 2075
57.73596 2075
57.76456 2075
57.78809 2075
57.81739 2075
57.84656 2075
57.87236 2075
57.89743 2075
57.92123 2075
57.94582 2075
57.97226 2075
57.99912 2075
58.02332 2075
58.0481 2075
58.07642 2075
58.10376 2075
58.12915 2075
58.15412 2075
58.17855 2075
58.20245 2075
58.22626 2075
58.25502 2075
58.28032 2075
58.30442 2075
58.33238 2075
58.35871 2075
58.38517 2075
58.41338 2075
58.44049 2075
58.46643 2075
58.49448 2075
58.51878 2075
58.54254 2075
58.57128 2075
58.59616 2075
58.62412 2075
58.64896 2075
58.67716 2075
58.7031 2075
58.72713 2075
58.75446 2075
58.77896 2075
58.80417 2075
58.82844 2075
58.85291 2075
58.87999 2075
58.91097 2075
58.93483 2075
58.96191 2075
58.98833 2075
59.01434 2075
59.03866 2075
59.06276 2075
59.08807 2075
59.11363 2075
59.13769 2075
59.16173 2075
59.19228 2075
59.2177 2075
59.24115 2075
59.26439 2075
59.28916 2075
59.31396 2075
59.33815 2075
59.36185 2075
59.3914 2075
59.41552 2075
59.44484 2075
59.46992 2075
59.49596 2075
59.5246 2075
59.54899 2075
59.57269 2075
59.59954 2075
59.62431 2075
59.64826 2075
59.67197 2075
59.69735 2075
59.7277 2075
59.75624 2075
59.77924 2075
59.80771 2075
59.83197 2075
59.85757 2075
59.88125 2075
59.90822 2075
59.93309 2075
59.9622 2075
59.98669 2075
60.01531 2075
60.04117 2075
60.06471 2075
60.08935 2075
60.11556 2075
60.14314 2075
60.16911 2075
60.19766 2075
60.22493 2075
60.25076 2075
60.27451 2075
60.29914 2075
60.32646 2075
60.35244 2075
60.38219 2075
60.4062 2075
60.43431 2075
60.46058 2075
60.48958 2075
60.51421 2075
60.53977 2075
60.56495 2075
60.5893 2075
60.61518 2075
60.64581 2075
60.67118 2075
60.69493 2075
60.72079 2075
60.74614 2075
60.77087 2075
60.79796 2075
60.82594 2075
60.85068 2075
60.87803 2075
60.90163 2075
60.92502 2075
60.95123 2075
60.97895 2075
61.00464 2075
61.02919 2075
61.05529 2075
61.08213 2075
61.10655 2075
61.13325 2075
61.16436 2075
61.1893 2075
61.21279 2075
61.23674 2075
61.26196 2075
61.28727 2075
61.31246 2075
61.33739 2075
61.36252 2075
61.38765 2075
61.4114 2075
61.43542 2075
61.4646 2075
61.49545 2075
61.51939 2075
61.54569 2075
61.57244 2075
61.59852 2075
61.62177 2075
61.64524 2075
61.67059 2075
61.69801 2075
61.72264 2075
61.74971 2075
61.77466 2075
61.80041 2075
61.82737 2075
61.85688 2075
61.88147 2075
61.90653 2075
61.92973 2075
61.95437 2075
61.97926 2075
62.00527 2075
62.03275 2075
62.05621 2075
62.08138 2075
62.10698 2075
62.13146 2075
62.1568 2075
62.18174 2075
62.20719 2075
62.23075 2075
62.25751 2075
62.28212 2075
62.31074 2075
62.33527 2075
62.35897 2075
62.38482 2075
62.4137 2075
62.43762 2075
62.46117 2075
62.48684 2075
62.51345 2075
62.53673 2075
62.56155 2075
62.59014 2075
62.6153 2075
62.64024 2075
62.66415 2075
62.68956 2075
62.71738 2075
62.74213 2075
62.76591 2075
62.79615 2075
62.82347 2075
62.84726 2075
62.87218 2075
62.90142 2075
62.92647 2075
62.95312 2075
62.97893 2075
63.00943 2075
63.03379 2075
63.05823 2075
63.08277 2075
63.11237 2075
63.13886 2075
63.16315 2075
63.19413 2075
63.22574 2075
63.25169 2075
63.27472 2075
63.30312 2075
63.32806 2075
63.35548 2075
63.38006 2075
63.40388 2075
63.42876 2075
63.45538 2075
63.48019 2075
63.50352 2075
63.52831 2075
63.55615 2075
63.58694 2075
63.6103 2075
63.63404 2075
63.66261 2075
63.68623 2075
63.71498 2075
63.74099 2075
63.76641 2075
63.79045 2075
63.81589 2075
63.84638 2075
63.87161 2075
63.89607 2075
63.92007 2075
63.94837 2075
63.9733 2075
63.99881 2075
64.02509 2075
64.05486 2075
64.0829 2075
64.10696 2075
64.13058 2075
64.15788 2075
64.18365 2075
64.20837 2075
64.2327 2075
64.26183 2075
64.28676 2075
64.31044 2075
64.33427 2075
64.35978 2075
64.38996 2075
64.41778 2075
64.44133 2075
64.46978 2075
64.49496 2075
64.51957 2075
64.54298 2075
64.57194 2075
64.59696 2075
64.62371 2075
64.64925 2075
64.67392 2075
64.699 2075
64.72536 2075
64.7545 2075
64.77992 2075
64.80855 2075
64.83221 2075
64.8594 2075
64.88403 2075
64.91028 2075
64.93901 2075
64.96283 2075
64.98865 2075
65.01476 2075
65.03849 2075
65.06185 2075
65.08701 2075
65.11502 2075
65.13915 2075
65.16724 2075
65.19862 2075
65.22426 2075
65.24895 2075
65.27288 2075
65.29789 2075
65.32261 2075
65.3464 2075
65.37071 2075
65.39767 2075
65.42318 2075
65.44852 2075
65.47318 2075
65.50107 2075
65.52564 2075
65.54871 2075
65.57259 2075
65.6032 2075
65.63136 2075
65.65688 2075
65.67978 2075
65.70472 2075
65.73009 2075
65.75482 2075
65.77882 2075
65.80537 2075
65.8341 2075
65.86007 2075
65.88326 2075
65.90867 2075
65.93321 2075
65.95668 2075
65.98222 2075
66.00826 2075
66.03907 2075
66.06384 2075
66.09074 2075
66.11594 2075
66.14219 2075
66.16795 2075
66.19254 2075
66.21886 2075
66.24389 2075
66.26714 2075
66.29051 2075
66.31505 2075
66.34119 2075
66.36516 2075
66.39491 2075
66.4202 2075
66.44557 2075
66.46926 2075
66.49275 2075
66.51775 2075
66.54278 2075
66.56618 2075
66.59184 2075
66.61618 2075
66.64089 2075
66.66448 2075
66.69157 2075
66.71626 2075
66.74084 2075
66.76881 2075
66.79622 2075
66.82618 2075
66.85108 2075
66.87534 2075
66.89851 2075
66.92331 2075
66.94886 2075
66.97678 2075
67.00085 2075
67.02828 2075
67.05295 2075
67.07677 2075
67.1002 2075
67.13193 2075
67.15668 2075
67.18124 2075
67.20526 2075
67.23288 2075
67.26481 2075
67.28876 2075
67.31184 2075
67.33913 2075
67.36438 2075
67.38902 2075
67.41895 2075
67.44367 2075
67.47304 2075
67.50149 2075
67.52748 2075
67.55548 2075
67.58195 2075
67.60611 2075
67.62959 2075
67.65584 2075
67.68754 2075
67.71117 2075
67.73386 2075
67.76013 2075
67.78988 2075
67.8138 2075
67.83977 2075
67.86433 2075
67.89312 2075
67.91888 2075
67.94246 2075
67.96775 2075
67.99404 2075
68.02063 2075
68.04451 2075
68.07068 2075
68.09612 2075
68.12193 2075
68.14594 2075
68.17171 2075
68.19638 2075
68.22618 2075
68.25296 2075
68.27824 2075
68.30386 2075
68.33153 2075
68.35561 2075
68.38757 2075
68.41253 2075
68.43602 2075
68.46124 2075
68.48743 2075
68.51273 2075
68.54026 2075
68.56609 2075
68.59145 2075
68.61647 2075
68.64124 2075
68.66531 2075
68.69029 2075
68.71837 2075
68.75097 2075
68.77451 2075
68.79947 2075
68.82419 2075
68.85752 2075
68.88068 2075
68.90688 2075
68.93318 2075
68.96096 2075
68.9873 2075
69.01436 2075
69.04126 2075
69.06645 2075
69.09046 2075
69.11719 2075
69.1423 2075
69.1665 2075
69.19009 2075
69.21804 2075
69.24623 2075
69.2718 2075
69.29545 2075
69.32066 2075
69.34634 2075
69.37118 2075
69.39554 2075
69.42057 2075
69.44746 2075
69.47149 2075
69.49487 2075
69.51933 2075
69.54494 2075
69.57104 2075
69.59824 2075
69.62395 2075
69.64995 2075
69.68307 2075
69.71069 2075
69.73608 2075
69.76695 2075
69.79353 2075
69.82059 2075
69.84556 2075
69.87052 2075
69.89745 2075
69.92167 2075
69.94648 2075
69.97223 2075
70.00544 2075
70.02997 2075
70.05585 2075
70.08585 2075
70.11026 2075
70.13483 2075
70.1607 2075
70.18559 2075
70.20938 2075
70.23649 2075
70.26189 2075
70.29017 2075
70.31436 2075
70.34222 2075
70.36929 2075
70.39391 2075
70.41751 2075
70.44108 2075
70.46619 2075
70.49081 2075
70.51704 2075
70.5409 2075
70.56882 2075
70.59764 2075
70.62146 2075
70.64748 2075
70.67393 2075
70.6994 2075
70.72398 2075
70.74802 2075
70.77376 2075
70.80209 2075
70.83004 2075
70.85365 2075
70.87904 2075
70.90439 2075
70.92791 2075
70.95049 2075
70.97609 2075
71.00193 2075
71.02625 2075
71.05289 2075
71.07816 2075
71.10308 2075
71.12746 2075
71.15084 2075
71.17696 2075
71.20152 2075
71.22626 2075
71.2511 2075
71.27699 2075
71.3036 2075
71.32939 2075
71.35725 2075
71.38305 2075
71.4077 2075
71.43118 2075
71.45474 2075
71.48094 2075
71.50949 2075
71.53529 2075
71.55877 2075
71.58443 2075
71.61378 2075
71.64368 2075
71.67342 2075
71.69897 2075
71.72454 2075
71.75303 2075
71.77722 2075
71.80305 2075
71.82806 2075
71.85696 2075
71.88145 2075
71.90741 2075
71.936 2075
71.96106 2075
71.98437 2075
72.0174 2075
72.04182 2075
72.06571 2075
72.08969 2075
72.11494 2075
72.14124 2075
72.16473 2075
72.18892 2075
72.2144 2075
72.24241 2075
72.26891 2075
72.2933 2075
72.32178 2075
72.34708 2075
72.37361 2075
72.39718 2075
72.42328 2075
72.44858 2075
72.47247 2075
72.49586 2075
72.52258 2075
72.54732 2075
72.57066 2075
72.59567 2075
72.62009 2075
72.6521 2075
72.67607 2075
72.70071 2075
72.73212 2075
72.76398 2075
72.78725 2075
72.81209 2075
72.83642 2075
72.86316 2075
72.89174 2075
72.91531 2075
72.94059 2075
72.96521 2075
72.98886 2075
73.01379 2075
73.03893 2075
73.06934 2075
73.10031 2075
73.12508 2075
73.15044 2075
73.17817 2075
73.20954 2075
73.2326 2075
73.26162 2075
73.2895 2075
73.31364 2075
73.33825 2075
73.36438 2075
73.38969 2075
73.41319 2075
73.43629 2075
73.46181 2075
73.4866 2075
73.51009 2075
73.53732 2075
73.5652 2075
73.59259 2075
73.61565 2075
73.63863 2075
73.66337 2075
73.68869 2075
73.71209 2075
73.74067 2075
73.76581 2075
73.79129 2075
73.81492 2075
73.83901 2075
73.87024 2075
73.89571 2075
73.91933 2075
73.94862 2075
73.97865 2075
74.00661 2075
74.03101 2075
74.05777 2075
74.08287 2075
74.11229 2075
74.13505 2075
74.16024 2075
74.18864 2075
74.21345 2075
74.24051 2075
74.2629 2075
74.28689 2075
74.31142 2075
74.33784 2075
74.36147 2075
74.39097 2075
74.41843 2075
74.44181 2075
74.47275 2075
74.49899 2075
74.52385 2075
74.54755 2075
74.57104 2075
74.59678 2075
74.62096 2075
74.64426 2075
74.66698 2075
74.69247 2075
74.7176 2075
74.74243 2075
74.76875 2075
74.7932 2075
74.8179 2075
74.84182 2075
74.87146 2075
74.89683 2075
74.92593 2075
74.95011 2075
74.97585 2075
75.00169 2075
75.02744 2075
75.05152 2075
75.07536 2075
75.10379 2075
75.12849 2075
75.15147 2075
75.17814 2075
75.21029 2075
75.24249 2075
75.26571 2075
75.28854 2075
75.31403 2075
75.33991 2075
75.3633 2075
75.38625 2075
75.41166 2075
75.43739 2075
75.46087 2075
75.49281 2075
75.51936 2075
75.54732 2075
75.57132 2075
75.59646 2075
75.62109 2075
75.64609 2075
75.66897 2075
75.69259 2075
75.71747 2075
75.74242 2075
75.76578 2075
75.78973 2075
75.81491 2075
75.84019 2075
75.86367 2075
75.88853 2075
75.9189 2075
75.94331 2075
75.9668 2075
75.9904 2075
76.01604 2075
76.04104 2075
76.06741 2075
76.09148 2075
76.12322 2075
76.15311 2075
76.17701 2075
76.20086 2075
76.22649 2075
76.25464 2075
76.27776 2075
76.30225 2075
76.32692 2075
76.35194 2075
76.37555 2075
76.40488 2075
76.42933 2075
76.45363 2075
76.47708 2075
76.50523 2075
76.5305 2075
76.55708 2075
76.58122 2075
76.60502 2075
76.63005 2075
76.65652 2075
76.67966 2075
76.70758 2075
76.73602 2075
76.76222 2075
76.78563 2075
76.80972 2075
76.83424 2075
76.86274 2075
76.89463 2075
76.91747 2075
76.94244 2075
76.9668 2075
76.99537 2075
77.01962 2075
77.04501 2075
77.07333 2075
77.0976 2075
77.12115 2075
77.14853 2075
77.17384 2075
77.1985 2075
77.22196 2075
77.24688 2075
77.27242 2075
77.30576 2075
77.3291 2075
77.35399 2075
77.37907 2075
77.40642 2075
77.42973 2075
77.45513 2075
77.4797 2075
77.50413 2075
77.52888 2075
77.55353 2075
77.57841 2075
77.60159 2075
77.62572 2075
77.6517 2075
77.67644 2075
77.70002 2075
77.72413 2075
77.75358 2075
77.7803 2075
77.81088 2075
77.83897 2075
77.86331 2075
77.8885 2075
77.91326 2075
77.93639 2075
77.9612 2075
77.98605 2075
78.01636 2075
78.04085 2075
78.06539 2075
78.09033 2075
78.1155 2075
78.14344 2075
78.16893 2075
78.1938 2075
78.22515 2075
78.25562 2075
78.28627 2075
78.31301 2075
78.33714 2075
78.36568 2075
78.3905 2075
78.41506 2075
78.43926 2075
78.4634 2075
78.48981 2075
78.51476 2075
78.53794 2075
78.56262 2075
78.5873 2075
78.61421 2075
78.63743 2075
78.66142 2075
78.68565 2075
78.71146 2075
78.73517 2075
78.76262 2075
78.78985 2075
78.81723 2075
78.84176 2075
78.86515 2075
78.89063 2075
78.91749 2075
78.9422 2075
78.96849 2075
78.99375 2075
79.02131 2075
79.04491 2075
79.06978 2075
79.09914 2075
79.12447 2075
79.14801 2075
79.17381 2075
79.19842 2075
79.22373 2075
79.24853 2075
79.27155 2075
79.30306 2075
79.32944 2075
79.35288 2075
79.37646 2075
79.40122 2075
79.43177 2075
79.45643 2075
79.48019 2075
79.50748 2075
79.5331 2075
79.55734 2075
79.58487 2075
79.61433 2075
79.63945 2075
79.66307 2075
79.68605 2075
79.71191 2075
79.7372 2075
79.76121 2075
79.78609 2075
79.81251 2075
79.83802 2075
79.86533 2075
79.89288 2075
79.92178 2075
79.9466 2075
79.97623 2075
80.00042 2075
80.0257 2075
80.05124 2075
80.07623 2075
80.09985 2075
80.12543 2075
80.15002 2075
80.174 2075
80.19774 2075
80.22353 2075
80.25263 2075
80.27606 2075
80.30087 2075
80.32729 2075
80.35236 2075
80.37706 2075
80.40154 2075
80.42906 2075
80.45393 2075
80.47868 2075
80.5025 2075
80.52808 2075
80.5547 2075
80.57825 2075
80.60169 2075
80.62648 2075
80.65546 2075
80.68238 2075
80.70763 2075
80.73458 2075
80.76133 2075
80.78492 2075
80.80904 2075
80.83434 2075
80.85991 2075
80.88498 2075
80.90878 2075
80.93345 2075
80.9631 2075
80.98627 2075
81.01184 2075
81.04185 2075
81.06689 2075
81.09155 2075
81.11608 2075
81.14298 2075
81.16749 2075
81.19913 2075
81.22327 2075
81.24913 2075
81.28094 2075
81.30391 2075
81.32691 2075
81.35168 2075
81.37646 2075
81.40054 2075
81.42521 2075
81.45092 2075
81.47659 2075
81.50006 2075
81.52537 2075
81.55042 2075
81.57555 2075
81.60104 2075
81.62519 2075
81.64996 2075
81.67535 2075
81.70792 2075
81.7322 2075
81.75752 2075
81.78246 2075
81.81243 2075
81.8357 2075
81.86038 2075
81.88704 2075
81.90987 2075
81.93569 2075
81.96027 2075
81.98516 2075
82.01017 2075
82.03432 2075
82.06042 2075
82.08588 2075
82.11015 2075
82.13383 2075
82.15968 2075
82.18423 2075
82.21156 2075
82.23473 2075
82.26011 2075
82.28637 2075
82.31029 2075
82.33421 2075
82.35951 2075
82.38513 2075
82.41295 2075
82.43793 2075
82.46429 2075
82.489 2075
82.51334 2075
82.53914 2075
82.56435 2075
82.59281 2075
82.61784 2075
82.64162 2075
82.66834 2075
82.69992 2075
82.72451 2075
82.74888 2075
82.77399 2075
82.79876 2075
82.82209 2075
82.84905 2075
82.87391 2075
82.89876 2075
82.92171 2075
82.9454 2075
82.96968 2075
82.99612 2075
83.02094 2075
83.04756 2075
83.07459 2075
83.10011 2075
83.12379 2075
83.147 2075
83.17161 2075
83.19624 2075
83.22053 2075
83.24816 2075
83.27402 2075
83.3009 2075
83.32491 2075
83.34928 2075
83.37571 2075
83.40201 2075
83.43002 2075
83.45402 2075
83.47939 2075
83.50422 2075
83.52787 2075
83.55403 2075
83.57879 2075
83.61137 2075
83.63535 2075
83.65913 2075
83.6852 2075
83.71471 2075
83.74599 2075
83.77458 2075
83.80004 2075
83.82523 2075
83.85175 2075
83.87505 2075
83.90196 2075
83.92728 2075
83.95135 2075
83.97717 2075
84.00517 2075
84.03162 2075
84.05958 2075
84.08435 2075
84.11029 2075
84.13677 2075
84.16356 2075
84.18824 2075
84.21325 2075
84.23924 2075
84.26272 2075
84.28593 2075
84.31123 2075
84.3365 2075
84.36016 2075
84.38339 2075
84.41034 2075
84.44193 2075
84.46597 2075
84.49618 2075
84.52094 2075
84.54582 2075
84.56936 2075
84.59456 2075
84.62498 2075
84.6506 2075
84.67491 2075
84.70334 2075
84.7286 2075
84.75356 2075
84.7773 2075
84.80068 2075
84.82825 2075
84.8532 2075
84.87994 2075
84.91042 2075
84.93581 2075
84.96085 2075
84.98486 2075
85.01128 2075
85.03624 2075
85.06121 2075
85.08498 2075
85.10863 2075
85.13385 2075
85.15882 2075
85.18219 2075
85.20978 2075
85.23529 2075
85.26189 2075
85.28593 2075
85.31479 2075
85.34055 2075
85.36652 2075
85.3904 2075
85.41607 2075
85.44334 2075
85.46845 2075
85.49209 2075
85.5191 2075
85.54428 2075
85.56938 2075
85.59341 2075
85.61719 2075
85.64308 2075
85.67133 2075
85.69547 2075
85.71961 2075
85.75285 2075
85.78619 2075
85.80996 2075
85.8348 2075
85.86036 2075
85.88986 2075
85.91362 2075
85.9368 2075
85.96893 2075
85.99744 2075
86.02122 2075
86.04475 2075
86.07336 2075
86.09855 2075
86.1268 2075
86.15311 2075
86.1811 2075
86.20737 2075
86.23434 2075
86.25875 2075
86.28469 2075
86.31236 2075
86.33713 2075
86.36188 2075
86.38656 2075
86.41133 2075
86.43507 2075
86.4594 2075
86.4846 2075
86.50957 2075
86.53341 2075
86.55734 2075
86.58651 2075
86.61143 2075
86.64092 2075
86.66479 2075
86.68929 2075
86.7189 2075
86.74308 2075
86.76681 2075
86.79343 2075
86.81866 2075
86.84545 2075
86.8707 2075
86.89608 2075
86.92126 2075
86.94854 2075
86.97234 2075
86.99954 2075
87.02683 2075
87.05084 2075
87.07784 2075
87.10293 2075
87.13218 2075
87.15533 2075
87.18074 2075
87.21007 2075
87.23597 2075
87.26211 2075
87.28734 2075
87.31351 2075
87.33926 2075
87.36312 2075
87.38647 2075
87.41217 2075
87.43739 2075
87.46203 2075
87.4865 2075
87.51556 2075
87.547 2075
87.57076 2075
87.59695 2075
87.62108 2075
87.64597 2075
87.66962 2075
87.69372 2075
87.71954 2075
87.74466 2075
87.76931 2075
87.79404 2075
87.82459 2075
87.84946 2075
87.87489 2075
87.90045 2075
87.93119 2075
87.95605 2075
87.98442 2075
88.01211 2075
88.03756 2075
88.06369 2075
88.08715 2075
88.11092 2075
88.13979 2075
88.16644 2075
88.1923 2075
88.21804 2075
88.24595 2075
88.27047 2075
88.29421 2075
88.31799 2075
88.34499 2075
88.37521 2075
88.39859 2075
88.42317 2075
88.44855 2075
88.47498 2075
88.49889 2075
88.52559 2075
88.55114 2075
88.5797 2075
88.60349 2075
88.62749 2075
88.65442 2075
88.68222 2075
88.71169 2075
88.73521 2075
88.76052 2075
88.78668 2075
88.81078 2075
88.83498 2075
88.8609 2075
88.88786 2075
88.91265 2075
88.94301 2075
88.96854 2075
88.99677 2075
89.02496 2075
89.04883 2075
89.0776 2075
89.10352 2075
89.12785 2075
89.15331 2075
89.18022 2075
89.20812 2075
89.2327 2075
89.25594 2075
89.28572 2075
89.31059 2075
89.33511 2075
89.35921 2075
89.3856 2075
89.41068 2075
89.43468 2075
89.46251 2075
89.48818 2075
89.5135 2075
89.54168 2075
89.57127 2075
89.59708 2075
89.62374 2075
89.64935 2075
89.67369 2075
89.70307 2075
89.72855 2075
89.75315 2075
89.77998 2075
89.81078 2075
89.83708 2075
89.86195 2075
89.88539 2075
89.91068 2075
89.93804 2075
89.96183 2075
89.9856 2075
90.01792 2075
90.04322 2075
90.06703 2075
90.09212 2075
90.11858 2075
90.14546 2075
90.17165 2075
90.19602 2075
90.22221 2075
90.24788 2075
90.27174 2075
90.29548 2075
90.32241 2075
90.35158 2075
90.37866 2075
90.40276 2075
90.4295 2075
90.45901 2075
90.48272 2075
90.50776 2075
90.53493 2075
90.56027 2075
90.58421 2075
90.61365 2075
90.63867 2075
90.66931 2075
90.69421 2075
90.72566 2075
90.75092 2075
90.77697 2075
90.80346 2075
90.82925 2075
90.8544 2075
90.87984 2075
90.90401 2075
90.93256 2075
90.96048 2075
90.98565 2075
91.01711 2075
91.04086 2075
91.06639 2075
91.09295 2075
91.11776 2075
91.14118 2075
91.16733 2075
91.19285 2075
91.22101 2075
91.24493 2075
91.27303 2075
91.29771 2075
91.32165 2075
91.34753 2075
91.37323 2075
91.39847 2075
91.42224 2075
91.44717 2075
91.48051 2075
91.50534 2075
91.53369 2075
91.55836 2075
91.58408 2075
91.60909 2075
91.63525 2075
91.65911 2075
91.68427 2075
91.71024 2075
91.7366 2075
91.76199 2075
91.79169 2075
91.81767 2075
91.84374 2075
91.86846 2075
91.89436 2075
91.92375 2075
91.94827 2075
91.97211 2075
91.99873 2075
92.02842 2075
92.05211 2075
92.076 2075
92.10152 2075
92.13139 2075
92.15519 2075
92.18176 2075
92.20643 2075
92.23431 2075
92.25879 2075
92.28284 2075
92.30727 2075
92.33967 2075
92.36393 2075
92.38809 2075
92.41329 2075
92.43894 2075
92.46667 2075
92.49217 2075
92.51733 2075
92.54358 2075
92.56983 2075
92.59751 2075
92.62225 2075
92.64765 2075
92.67151 2075
92.69586 2075
92.72158 2075
92.75049 2075
92.77399 2075
92.7986 2075
92.8237 2075
92.85294 2075
92.87877 2075
92.90443 2075
92.92983 2075
92.95546 2075
92.97916 2075
93.00547 2075
93.03106 2075
93.05721 2075
93.08121 2075
93.10477 2075
93.13023 2075
93.15641 2075
93.1845 2075
93.21316 2075
93.24041 2075
93.26478 2075
93.28814 2075
93.31202 2075
93.33879 2075
93.36526 2075
93.38909 2075
93.41422 2075
93.44209 2075
93.46803 2075
93.49238 2075
93.51757 2075
93.54342 2075
93.57477 2075
93.59859 2075
93.62238 2075
93.64777 2075
93.67287 2075
93.69647 2075
93.7206 2075
93.74805 2075
93.77277 2075
93.80042 2075
93.82441 2075
93.8504 2075
93.87608 2075
93.90195 2075
93.92587 2075
93.95107 2075
93.98332 2075
94.00798 2075
94.03343 2075
94.06092 2075
94.08601 2075
94.10997 2075
94.13473 2075
94.16339 2075
94.18832 2075
94.2128 2075
94.2461 2075
94.27142 2075
94.29704 2075
94.32133 2075
94.34575 2075
94.37116 2075
94.39738 2075
94.42686 2075
94.45056 2075
94.47652 2075
94.50201 2075
94.52609 2075
94.55887 2075
94.58794 2075
94.61343 2075
94.63882 2075
94.66675 2075
94.69302 2075
94.71905 2075
94.74344 2075
94.77161 2075
94.79645 2075
94.82169 2075
94.84581 2075
94.87136 2075
94.89659 2075
94.92545 2075
94.94949 2075
94.97808 2075
95.00853 2075
95.03897 2075
95.06326 2075
95.08807 2075
95.11359 2075
95.1396 2075
95.16681 2075
95.19039 2075
95.21587 2075
95.24548 2075
95.2693 2075
95.2944 2075
95.32048 2075
95.35169 2075
95.37783 2075
95.40168 2075
95.42672 2075
95.45233 2075
95.47649 2075
95.50041 2075
95.52557 2075
95.55133 2075
95.57554 2075
95.60107 2075
95.62802 2075
95.65776 2075
95.68217 2075
95.70646 2075
95.73341 2075
95.76014 2075
95.78391 2075
95.80724 2075
95.83646 2075
95.86465 2075
95.88861 2075
95.92027 2075
95.94571 2075
95.97063 2075
96.00365 2075
96.02967 2075
96.05573 2075
96.08207 2075
96.11092 2075
96.13841 2075
96.16566 2075
96.1907 2075
96.21519 2075
96.24037 2075
96.26752 2075
96.29348 2075
96.32093 2075
96.34524 2075
96.37083 2075
96.39703 2075
96.42171 2075
96.44627 2075
96.47195 2075
96.49695 2075
96.52151 2075
96.54559 2075
96.57352 2075
96.60543 2075
96.63234 2075
96.65639 2075
96.68164 2075
96.70947 2075
96.73363 2075
96.75734 2075
96.78998 2075
96.81633 2075
96.84055 2075
96.86716 2075
96.89233 2075
96.9183 2075
96.94215 2075
96.96575 2075
96.99129 2075
97.02051 2075
97.04519 2075
97.06934 2075
97.09483 2075
97.12068 2075
97.14486 2075
97.1694 2075
97.19481 2075
97.22512 2075
97.25275 2075
97.2783 2075
97.30721 2075
97.33286 2075
97.35874 2075
97.38266 2075
97.40911 2075
97.43724 2075
97.4631 2075
97.4868 2075
97.51212 2075
97.54108 2075
97.56946 2075
97.59277 2075
97.61832 2075
97.64357 2075
97.67579 2075
97.70523 2075
97.73272 2075
97.76111 2075
97.78463 2075
97.81214 2075
97.842 2075
97.86752 2075
97.89124 2075
97.91542 2075
97.94173 2075
97.96753 2075
97.99229 2075
98.01683 2075
98.04224 2075
98.07139 2075
98.09586 2075
98.11948 2075
98.14515 2075
98.17008 2075
98.19412 2075
98.2199 2075
98.24587 2075
98.27206 2075
98.29613 2075
98.31993 2075
98.34644 2075
98.37421 2075
98.39751 2075
98.42548 2075
98.45298 2075
98.48064 2075
98.50506 2075
98.52969 2075
98.55495 2075
98.58077 2075
98.60483 2075
98.62904 2075
98.65401 2075
98.67966 2075
98.70334 2075
98.73121 2075
98.75636 2075
98.78137 2075
98.80611 2075
98.83015 2075
98.85536 2075
98.88384 2075
98.9126 2075
98.9384 2075
98.96398 2075
98.9895 2075
99.01451 2075
99.04247 2075
99.06798 2075
99.09833 2075
99.12272 2075
99.14996 2075
99.17504 2075
99.20032 2075
99.22575 2075
99.25092 2075
99.27546 2075
99.30325 2075
99.33473 2075
99.35976 2075
99.38498 2075
99.41408 2075
99.43874 2075
99.46497 2075
99.49302 2075
99.51782 2075
99.54675 2075
99.57158 2075
99.59732 2075
99.62218 2075
99.64686 2075
99.67425 2075
99.69948 2075
99.72479 2075
99.7497 2075
99.77362 2075
99.80064 2075
99.82718 2075
99.85258 2075
99.87808 2075
99.90447 2075
99.93245 2075
99.95715 2075
99.98174 2075
100.0115 2075
100.0402 2075
100.0642 2075
100.0881 2075
100.1143 2075
100.1404 2075
100.1658 2075
100.1893 2075
100.2147 2075
100.2399 2075
100.2657 2075
100.2913 2075
100.3167 2075
100.35 2075
100.3731 2075
100.3967 2075
100.4229 2075
100.4487 2075
100.4745 2075
100.4988 2075
100.5292 2075
100.5568 2075
100.5814 2075
100.607 2075
100.6353 2075
100.6609 2075
100.6843 2075
100.7079 2075
100.7354 2075
100.7665 2075
100.7915 2075
100.816 2075
100.8428 2075
100.8677 2075
100.8932 2075
100.9172 2075
100.9419 2075
100.9704 2075
100.9949 2075
101.0225 2075
101.0478 2075
101.0731 2075
101.0985 2075
101.1231 2075
101.1501 2075
101.1745 2075
101.1983 2075
101.2221 2075
101.248 2075
101.2771 2075
101.303 2075
101.3263 2075
101.3557 2075
101.3826 2075
101.4062 2075
101.4297 2075
101.4551 2075
101.4809 2075
101.5081 2075
101.5328 2075
101.5624 2075
101.5878 2075
101.615 2075
101.6387 2075
101.6643 2075
101.6893 2075
101.7212 2075
101.748 2075
101.7731 2075
101.7984 2075
101.8237 2075
101.8483 2075
101.878 2075
101.9031 2075
101.926 2075
101.9494 2075
101.9744 2075
102.0032 2075
102.0269 2075
102.0516 2075
102.077 2075
102.104 2075
102.133 2075
102.1575 2075
102.1867 2075
102.2158 2075
102.2394 2075
102.2634 2075
102.2884 2075
102.3138 2075
102.339 2075
102.3659 2075
102.3911 2075
102.4159 2075
102.4397 2075
102.4642 2075
102.4975 2075
102.5225 2075
102.5465 2075
102.5718 2075
102.5985 2075
102.6231 2075
102.6465 2075
102.6754 2075
102.704 2075
102.732 2075
102.7578 2075
102.7819 2075
102.8075 2075
102.8325 2075
102.8589 2075
102.8825 2075
102.9097 2075
102.938 2075
102.9623 2075
102.9863 2075
103.0154 2075
103.0401 2075
103.0673 2075
103.0911 2075
103.1219 2075
103.1495 2075
103.1751 2075
103.205 2075
103.2328 2075
103.2606 2075
103.2884 2075
103.3126 2075
103.338 2075
103.3634 2075
103.3868 2075
103.41 2075
103.4376 2075
103.4643 2075
103.4889 2075
103.5125 2075
103.537 2075
103.5648 2075
103.5954 2075
103.6219 2075
103.647 2075
103.6737 2075
103.6984 2075
103.7231 2075
103.749 2075
103.775 2075
103.7987 2075
103.8245 2075
103.8502 2075
103.8755 2075
103.8998 2075
103.9235 2075
103.9485 2075
103.9737 2075
104.002 2075
104.0253 2075
104.0505 2075
104.0759 2075
104.0996 2075
104.1234 2075
104.1509 2075
104.1761 2075
104.2051 2075
104.2299 2075
104.2565 2075
104.2836 2075
104.3082 2075
104.3324 2075
104.358 2075
104.3844 2075
104.4102 2075
104.4347 2075
104.46 2075
104.4892 2075
104.5139 2075
104.5419 2075
104.5676 2075
104.5925 2075
104.6167 2075
104.6403 2075
104.6669 2075
104.6927 2075
104.7185 2075
104.7436 2075
104.7694 2075
104.7943 2075
104.8193 2075
104.8429 2075
104.8684 2075
104.8985 2075
104.9219 2075
104.9484 2075
104.9765 2075
105.0057 2075
105.0313 2075
105.0563 2075
105.0851 2075
105.1108 2075
105.1357 2075
105.1591 2075
105.187 2075
105.2164 2075
105.2409 2075
105.2706 2075
105.2959 2075
105.3211 2075
105.3456 2075
105.3706 2075
105.3964 2075
105.4221 2075
105.4461 2075
105.47 2075
105.4982 2075
105.5251 2075
105.5577 2075
105.5825 2075
105.6085 2075
105.6341 2075
105.6583 2075
105.6844 2075
105.7103 2075
105.7362 2075
105.7596 2075
105.784 2075
105.8112 2075
105.8402 2075
105.8644 2075
105.8881 2075
105.9134 2075
105.9395 2075
105.9637 2075
105.9895 2075
106.0214 2075
106.047 2075
106.0729 2075
106.0982 2075
106.1235 2075
106.149 2075
106.1756 2075
106.2089 2075
106.2356 2075
106.2611 2075
106.2858 2075
106.3098 2075
106.3375 2075
106.3629 2075
106.3869 2075
106.4103 2075
106.4371 2075
106.4626 2075
106.4911 2075
106.5152 2075
106.5409 2075
106.5669 2075
106.5929 2075
106.6166 2075
106.6431 2075
106.6682 2075
106.6911 2075
106.7155 2075
106.745 2075
106.7713 2075
106.7992 2075
106.8235 2075
106.8489 2075
106.8745 2075
106.8988 2075
106.9224 2075
106.9483 2075
106.9739 2075
107.0028 2075
107.0346 2075
107.0605 2075
107.0857 2075
107.109 2075
107.1351 2075
107.1603 2075
107.1869 2075
107.2116 2075
107.2393 2075
107.2687 2075
107.2937 2075
107.3209 2075
107.3452 2075
107.3721 2075
107.3973 2075
107.4219 2075
107.4467 2075
107.4742 2075
107.4997 2075
107.5236 2075
107.5497 2075
107.5752 2075
107.6041 2075
107.6269 2075
107.6504 2075
107.6759 2075
107.7007 2075
107.7251 2075
107.749 2075
107.7748 2075
107.8002 2075
107.8279 2075
107.8564 2075
107.8827 2075
107.9095 2075
107.9375 2075
107.9619 2075
107.9876 2075
108.0152 2075
108.039 2075
108.0661 2075
108.0947 2075
108.1199 2075
108.1454 2075
108.17 2075
108.1992 2075
108.2254 2075
108.2511 2075
108.2751 2075
108.3032 2075
108.329 2075
108.3538 2075
108.3785 2075
108.4041 2075
108.4321 2075
108.46 2075
108.4838 2075
108.5103 2075
108.5353 2075
108.56 2075
108.584 2075
108.6091 2075
108.6378 2075
108.6608 2075
108.6842 2075
108.7095 2075
108.7361 2075
108.7599 2075
108.7844 2075
108.81 2075
108.8395 2075
108.8646 2075
108.889 2075
108.9155 2075
108.9404 2075
108.9644 2075
108.9893 2075
109.0182 2075
109.0437 2075
109.0679 2075
109.0927 2075
109.1179 2075
109.1425 2075
109.1697 2075
109.1932 2075
109.219 2075
109.2445 2075
109.2682 2075
109.2922 2075
109.3177 2075
109.3429 2075
109.3693 2075
109.3929 2075
109.4249 2075
109.4502 2075
109.4751 2075
109.5007 2075
109.5266 2075
109.5517 2075
109.5757 2075
109.6009 2075
109.6269 2075
109.6521 2075
109.6757 2075
109.6999 2075
109.7281 2075
109.7531 2075
109.7769 2075
109.8007 2075
109.8257 2075
109.8513 2075
109.8753 2075
109.9005 2075
109.9258 2075
109.9529 2075
109.977 2075
110.0047 2075
110.0322 2075
110.0625 2075
110.0881 2075
110.1161 2075
110.1419 2075
110.1689 2075
110.1936 2075
110.2175 2075
110.2446 2075
110.27 2075
110.294 2075
110.3179 2075
110.3433 2075
110.3685 2075
110.3923 2075
110.4167 2075
110.4472 2075
110.4731 2075
110.5016 2075
110.5262 2075
110.5517 2075
110.5768 2075
110.6008 2075
110.6248 2075
110.6505 2075
110.6806 2075
110.7042 2075
110.7277 2075
110.7532 2075
110.7781 2075
110.802 2075
110.8259 2075
110.8547 2075
110.8793 2075
110.9031 2075
110.9264 2075
110.9518 2075
110.9773 2075
111.0029 2075
111.0294 2075
111.0613 2075
111.09 2075
111.1139 2075
111.1377 2075
111.1626 2075
111.1877 2075
111.2115 2075
111.2382 2075
111.2651 2075
111.293 2075
111.3181 2075
111.3422 2075
111.3672 2075
111.392 2075
111.416 2075
111.4422 2075
111.4682 2075
111.4942 2075
111.5177 2075
111.5414 2075
111.5673 2075
111.5975 2075
111.6212 2075
111.646 2075
111.6755 2075
111.7022 2075
111.7283 2075
111.7527 2075
111.7784 2075
111.8039 2075
111.8337 2075
111.858 2075
111.8835 2075
111.91 2075
111.9379 2075
111.9615 2075
111.989 2075
112.0148 2075
112.0389 2075
112.0621 2075
112.0896 2075
112.1162 2075
112.1402 2075
112.1636 2075
112.1891 2075
112.215 2075
112.2441 2075
112.2686 2075
112.2943 2075
112.3216 2075
112.3452 2075
112.3699 2075
112.3961 2075
112.4219 2075
112.4457 2075
112.4713 2075
112.5028 2075
112.5278 2075
112.5538 2075
112.577 2075
112.6066 2075
112.6363 2075
112.6594 2075
112.687 2075
112.7127 2075
112.7394 2075
112.7627 2075
112.79 2075
112.8155 2075
112.8414 2075
112.8683 2075
112.8956 2075
112.9223 2075
112.9482 2075
112.972 2075
112.9982 2075
113.0242 2075
113.0509 2075
113.0746 2075
113.1013 2075
113.1267 2075
113.1516 2075
113.1767 2075
113.2013 2075
113.227 2075
113.2519 2075
113.2757 2075
113.3001 2075
113.3257 2075
113.3545 2075
113.3789 2075
113.4034 2075
113.4325 2075
113.4585 2075
113.483 2075
113.5073 2075
113.5352 2075
113.5618 2075
113.5864 2075
113.611 2075
113.638 2075
113.6647 2075
113.6894 2075
113.7172 2075
113.7422 2075
113.7684 2075
113.7928 2075
113.8169 2075
113.8429 2075
113.8688 2075
113.8939 2075
113.9185 2075
113.9483 2075
113.9739 2075
113.9998 2075
114.0247 2075
114.0509 2075
114.0797 2075
114.1037 2075
114.1278 2075
114.1528 2075
114.1793 2075
114.2031 2075
114.2271 2075
114.2553 2075
114.28 2075
114.3038 2075
114.3273 2075
114.3526 2075
114.3795 2075
114.4032 2075
114.4304 2075
114.4562 2075
114.4824 2075
114.5065 2075
114.5329 2075
114.5601 2075
114.5864 2075
114.6102 2075
114.6345 2075
114.6594 2075
114.6851 2075
114.7134 2075
114.7373 2075
114.762 2075
114.789 2075
114.8125 2075
114.8383 2075
114.8632 2075
114.8907 2075
114.9137 2075
114.9399 2075
114.9651 2075
114.9919 2075
115.0165 2075
115.0401 2075
115.0694 2075
115.0954 2075
115.1205 2075
115.1449 2075
115.1702 2075
115.1992 2075
115.2237 2075
115.2501 2075
115.2753 2075
115.3003 2075
115.328 2075
115.3521 2075
115.3793 2075
115.4042 2075
115.4292 2075
115.4527 2075
115.4779 2075
115.5037 2075
115.5288 2075
115.5588 2075
115.5899 2075
115.6147 2075
115.6386 2075
115.6623 2075
115.6913 2075
115.7167 2075
115.7412 2075
115.7647 2075
115.795 2075
115.8274 2075
115.8513 2075
115.8752 2075
115.9 2075
115.9276 2075
115.9516 2075
115.9755 2075
116.0036 2075
116.0288 2075
116.056 2075
116.0834 2075
116.1092 2075
116.1357 2075
116.1618 2075
116.1864 2075
116.2123 2075
116.2379 2075
116.2615 2075
116.2855 2075
116.3105 2075
116.3388 2075
116.3692 2075
116.3938 2075
116.4189 2075
116.4436 2075
116.4679 2075
116.4922 2075
116.5182 2075
116.5433 2075
116.568 2075
116.5955 2075
116.6204 2075
116.6454 2075
116.6734 2075
116.6963 2075
116.7226 2075
116.7505 2075
116.7753 2075
116.8004 2075
116.8254 2075
116.8506 2075
116.8745 2075
116.9032 2075
116.9318 2075
116.9568 2075
116.9803 2075
117.0052 2075
117.0308 2075
117.0557 2075
117.0848 2075
117.1128 2075
117.1381 2075
117.1642 2075
117.1889 2075
117.2194 2075
117.2441 2075
117.271 2075
117.2942 2075
117.3195 2075
117.3472 2075
117.3731 2075
117.3978 2075
117.422 2075
117.4478 2075
117.4764 2075
117.5009 2075
117.5246 2075
117.55 2075
117.5764 2075
117.6006 2075
117.6243 2075
117.6502 2075
117.6789 2075
117.703 2075
117.727 2075
117.7524 2075
117.7775 2075
117.8019 2075
117.8253 2075
117.8527 2075
117.8779 2075
117.9022 2075
117.9275 2075
117.9601 2075
117.9859 2075
118.0125 2075
118.0371 2075
118.063 2075
118.0894 2075
118.113 2075
118.141 2075
118.1664 2075
118.1927 2075
118.218 2075
118.2416 2075
118.2692 2075
118.2946 2075
118.3225 2075
118.3475 2075
118.3808 2075
118.4142 2075
118.4435 2075
118.4711 2075
118.4978 2075
118.5236 2075
118.5481 2075
118.5719 2075
118.6043 2075
118.6298 2075
118.659 2075
118.683 2075
118.7138 2075
118.7385 2075
118.7614 2075
118.7851 2075
118.812 2075
118.8379 2075
118.8648 2075
118.8912 2075
118.9175 2075
118.9454 2075
118.9715 2075
118.9979 2075
119.0235 2075
119.0499 2075
119.0745 2075
119.0995 2075
119.1249 2075
119.1501 2075
119.1738 2075
119.2016 2075
119.2271 2075
119.2519 2075
119.2766 2075
119.3008 2075
119.326 2075
119.3581 2075
119.3827 2075
119.4067 2075
119.4336 2075
119.4589 2075
119.4832 2075
119.5076 2075
119.5339 2075
119.5624 2075
119.5863 2075
119.6101 2075
119.6349 2075
119.6598 2075
119.6839 2075
119.708 2075
119.7342 2075
119.7594 2075
119.7833 2075
119.8078 2075
119.8332 2075
119.8614 2075
119.8899 2075
119.9148 2075
119.9397 2075
119.967 2075
119.992 2075
120.0171 2075
120.0423 2075
120.074 2075
120.1005 2075
120.1241 2075
120.1533 2075
120.1789 2075
120.2029 2075
120.2264 2075
120.2527 2075
120.2775 2075
120.3016 2075
120.327 2075
120.3524 2075
120.3773 2075
120.4014 2075
120.4249 2075
120.4506 2075
120.481 2075
120.5047 2075
120.5288 2075
120.5563 2075
120.5823 2075
120.6075 2075
120.6316 2075
120.6595 2075
120.685 2075
120.7094 2075
120.7348 2075
120.7599 2075
120.7867 2075
120.8152 2075
120.8413 2075
120.8666 2075
120.8917 2075
120.9171 2075
120.9417 2075
120.9703 2075
121.0005 2075
121.0271 2075
121.0534 2075
121.0832 2075
121.1082 2075
121.1328 2075
121.1579 2075
121.1832 2075
121.2085 2075
121.2325 2075
121.2569 2075
121.2837 2075
121.312 2075
121.3375 2075
121.3607 2075
121.3859 2075
121.4107 2075
121.4346 2075
121.4583 2075
121.4841 2075
121.5122 2075
121.5368 2075
121.5599 2075
121.5888 2075
121.6159 2075
121.6406 2075
121.6708 2075
121.6964 2075
121.7224 2075
121.7476 2075
121.7718 2075
121.7972 2075
121.8226 2075
121.8461 2075
121.8706 2075
121.8962 2075
121.9218 2075
121.9451 2075
121.975 2075
122.0012 2075
122.0295 2075
122.0531 2075
122.0776 2075
122.1034 2075
122.131 2075
122.1556 2075
122.1786 2075
122.2058 2075
122.2318 2075
122.2607 2075
122.2881 2075
122.3131 2075
122.3387 2075
122.3638 2075
122.3878 2075
122.4155 2075
122.4436 2075
122.4679 2075
122.4925 2075
122.5215 2075
122.5458 2075
122.5725 2075
122.5966 2075
122.6222 2075
122.6491 2075
122.6754 2075
122.6997 2075
122.7266 2075
122.7525 2075
122.7761 2075
122.8034 2075
122.8283 2075
122.8593 2075
122.8827 2075
122.9063 2075
122.9307 2075
122.9558 2075
122.9832 2075
123.011 2075
123.0368 2075
123.0618 2075
123.0877 2075
123.111 2075
123.1373 2075
123.1623 2075
123.1911 2075
123.2153 2075
123.241 2075
123.2712 2075
123.2951 2075
123.3204 2075
123.3465 2075
123.3748 2075
123.3997 2075
123.424 2075
123.4536 2075
123.4783 2075
123.5022 2075
123.5328 2075
123.562 2075
123.5865 2075
123.6132 2075
123.6398 2075
123.6694 2075
123.6959 2075
123.7197 2075
123.7466 2075
123.7713 2075
123.7963 2075
123.8209 2075
123.845 2075
123.8711 2075
123.897 2075
123.9212 2075
123.9445 2075
123.9732 2075
124.0006 2075
124.0261 2075
124.0517 2075
124.0766 2075
124.1049 2075
124.1281 2075
124.1531 2075
124.1782 2075
124.2036 2075
124.2284 2075
124.2534 2075
124.2809 2075
124.3119 2075
124.3371 2075
124.3606 2075
124.386 2075
124.4111 2075
124.435 2075
124.459 2075
124.4853 2075
124.5136 2075
124.5374 2075
124.5615 2075
124.5874 2075
124.6138 2075
124.6376 2075
124.6615 2075
124.6867 2075
124.7119 2075
124.7358 2075
124.7597 2075
124.7879 2075
124.8136 2075
124.8378 2075
124.8633 2075
124.8942 2075
124.9202 2075
124.9468 2075
124.9737 2075
125.0046 2075
125.0319 2075
125.056 2075
125.0806 2075
125.1062 2075
125.1333 2075
125.1598 2075
125.1867 2075
125.2122 2075
125.237 2075
125.2607 2075
125.2847 2075
125.3098 2075
125.3357 2075
125.3603 2075
125.3839 2075
125.4092 2075
125.435 2075
125.4592 2075
125.4846 2075
125.5105 2075
125.5417 2075
125.5656 2075
125.5892 2075
125.6139 2075
125.6408 2075
125.6649 2075
125.6888 2075
125.7153 2075
125.7403 2075
125.7666 2075
125.7901 2075
125.8203 2075
125.8455 2075
125.8701 2075
125.8944 2075
125.9212 2075
125.9516 2075
125.977 2075
126.0041 2075
126.03 2075
126.0565 2075
126.0799 2075
126.104 2075
126.1299 2075
126.155 2075
126.1785 2075
126.2028 2075
126.2281 2075
126.2536 2075
126.2793 2075
126.3084 2075
126.3338 2075
126.358 2075
126.3812 2075
126.4049 2075
126.4298 2075
126.4568 2075
126.4804 2075
126.5083 2075
126.5416 2075
126.5666 2075
126.5914 2075
126.6154 2075
126.6411 2075
126.6661 2075
126.6895 2075
126.7182 2075
126.7459 2075
126.7715 2075
126.7946 2075
126.8184 2075
126.8432 2075
126.8738 2075
126.8993 2075
126.9227 2075
126.9476 2075
126.9738 2075
127.0004 2075
127.0241 2075
127.0491 2075
127.0792 2075
127.1051 2075
127.1335 2075
127.1588 2075
127.1856 2075
127.2095 2075
127.234 2075
127.2592 2075
127.2849 2075
127.3084 2075
127.3317 2075
127.3572 2075
127.3825 2075
127.4087 2075
127.4329 2075
127.4583 2075
127.488 2075
127.5133 2075
127.5385 2075
127.5644 2075
127.5903 2075
127.6142 2075
127.6404 2075
127.6662 2075
127.6913 2075
127.7159 2075
127.7396 2075
127.7644 2075
127.7937 2075
127.8217 2075
127.8504 2075
127.8753 2075
127.9017 2075
127.9261 2075
127.9495 2075
127.9743 2075
128.0034 2075
128.0273 2075
128.0515 2075
128.0836 2075
128.1121 2075
128.1371 2075
128.161 2075
128.1862 2075
128.2155 2075
128.2395 2075
128.2628 2075
128.2913 2075
128.3166 2075
128.3403 2075
128.3635 2075
128.3885 2075
128.4149 2075
128.4393 2075
128.4663 2075
128.493 2075
128.5186 2075
128.5441 2075
128.5695 2075
128.5964 2075
128.6233 2075
128.6459 2075
128.6757 2075
128.7045 2075
128.7303 2075
128.756 2075
128.7806 2075
128.8109 2075
128.8361 2075
128.8597 2075
128.8842 2075
128.9105 2075
128.9395 2075
128.9628 2075
128.9869 2075
129.0121 2075
129.0397 2075
129.0698 2075
129.0941 2075
129.1226 2075
129.1483 2075
129.1791 2075
129.2098 2075
129.2358 2075
129.2605 2075
129.2845 2075
129.3083 2075
129.3346 2075
129.3596 2075
129.3836 2075
129.4077 2075
129.4333 2075
129.4584 2075
129.4817 2075
129.5056 2075
129.5375 2075
129.5643 2075
129.5927 2075
129.6157 2075
129.6413 2075
129.6666 2075
129.6905 2075
129.7185 2075
129.7476 2075
129.7738 2075
129.798 2075
129.8221 2075
129.8474 2075
129.8727 2075
129.896 2075
129.9201 2075
129.9497 2075
129.9751 2075
130.003 2075
130.0268 2075
130.0529 2075
130.0787 2075
130.1026 2075
130.1282 2075
130.1548 2075
130.1813 2075
130.2052 2075
130.2287 2075
130.2567 2075
130.2811 2075
130.3098 2075
130.3367 2075
130.3627 2075
130.3877 2075
130.4112 2075
130.4395 2075
130.4656 2075
130.4919 2075
130.5165 2075
130.5401 2075
130.565 2075
130.5899 2075
130.6131 2075
130.6384 2075
130.665 2075
130.6933 2075
130.7188 2075
130.743 2075
130.7719 2075
130.7976 2075
130.8218 2075
130.8457 2075
130.8708 2075
130.8957 2075
130.9262 2075
130.9505 2075
130.9754 2075
131.0012 2075
131.0247 2075
131.048 2075
131.073 2075
131.0979 2075
131.1237 2075
131.1525 2075
131.1781 2075
131.2034 2075
131.2342 2075
131.2575 2075
131.2821 2075
131.3083 2075
131.3326 2075
131.3572 2075
131.3836 2075
131.4096 2075
131.4353 2075
131.4651 2075
131.4902 2075
131.5206 2075
131.5447 2075
131.5701 2075
131.5967 2075
131.6213 2075
131.6482 2075
131.671 2075
131.6969 2075
131.7212 2075
131.7463 2075
131.7705 2075
131.8009 2075
131.8285 2075
131.8526 2075
131.8788 2075
131.9039 2075
131.9293 2075
131.9543 2075
131.9783 2075
132.0047 2075
132.03 2075
132.0577 2075
132.0812 2075
132.1064 2075
132.1327 2075
132.1615 2075
132.1859 2075
132.211 2075
132.237 2075
132.2606 2075
132.286 2075
132.3111 2075
132.3372 2075
132.3616 2075
132.3915 2075
132.4195 2075
132.4491 2075
132.4728 2075
132.4963 2075
132.5211 2075
132.5466 2075
132.5725 2075
132.596 2075
132.6217 2075
132.6465 2075
132.6707 2075
132.6945 2075
132.7224 2075
132.7488 2075
132.7747 2075
132.799 2075
132.8255 2075
132.851 2075
132.8779 2075
132.9016 2075
132.9263 2075
132.9546 2075
132.9783 2075
133.0039 2075
133.0295 2075
133.0564 2075
133.0812 2075
133.1053 2075
133.1307 2075
133.1555 2075
133.1796 2075
133.2042 2075
133.2292 2075
133.2543 2075
133.2781 2075
133.3025 2075
133.3288 2075
133.3592 2075
133.3861 2075
133.4117 2075
133.4381 2075
133.4651 2075
133.4896 2075
133.5134 2075
133.539 2075
133.564 2075
133.5879 2075
133.6134 2075
133.6392 2075
133.6643 2075
133.6899 2075
133.7136 2075
133.7384 2075
133.7663 2075
133.7898 2075
133.8134 2075
133.8429 2075
133.8671 2075
133.8916 2075
133.9149 2075
133.9402 2075
133.9653 2075
133.9962 2075
134.022 2075
134.0476 2075
134.0741 2075
134.0984 2075
134.1258 2075
134.152 2075
134.1767 2075
134.2 2075
134.2238 2075
134.2486 2075
134.2737 2075
134.2971 2075
134.3223 2075
134.3491 2075
134.3741 2075
134.3973 2075
134.4246 2075
134.4498 2075
134.475 2075
134.4995 2075
134.5226 2075
134.5501 2075
134.5776 2075
134.6024 2075
134.6288 2075
134.6543 2075
134.6798 2075
134.705 2075
134.7292 2075
134.755 2075
134.7802 2075
134.8047 2075
134.8282 2075
134.8539 2075
134.8836 2075
134.9082 2075
134.931 2075
134.96 2075
134.9864 2075
135.0124 2075
135.0392 2075
135.0659 2075
135.0926 2075
135.1165 2075
135.1417 2075
135.1673 2075
135.1926 2075
135.2163 2075
135.2398 2075
135.2691 2075
135.2959 2075
135.3222 2075
135.3456 2075
135.3719 2075
135.4 2075
135.4273 2075
135.4505 2075
135.4755 2075
135.4999 2075
135.5237 2075
135.5487 2075
135.5737 2075
135.6023 2075
135.6265 2075
135.6498 2075
135.6752 2075
135.7007 2075
135.7258 2075
135.7497 2075
135.7749 2075
135.7998 2075
135.8235 2075
135.847 2075
135.8722 2075
135.8973 2075
135.9217 2075
135.9454 2075
135.9713 2075
135.9999 2075
136.0246 2075
136.0484 2075
136.0735 2075
136.0991 2075
136.1233 2075
136.1526 2075
136.1776 2075
136.203 2075
136.2307 2075
136.2602 2075
136.2858 2075
136.311 2075
136.3359 2075
136.3593 2075
136.3851 2075
136.4118 2075
136.4357 2075
136.4592 2075
136.4838 2075
136.5087 2075
136.5371 2075
136.5675 2075
136.5923 2075
136.6162 2075
136.6398 2075
136.6635 2075
136.69 2075
136.7229 2075
136.7461 2075
136.7698 2075
136.7945 2075
136.8214 2075
136.8455 2075
136.8695 2075
136.8951 2075
136.9222 2075
136.9473 2075
136.9714 2075
136.998 2075
137.024 2075
137.0491 2075
137.0724 2075
137.0974 2075
137.1227 2075
137.1464 2075
137.1712 2075
137.1957 2075
137.2222 2075
137.2466 2075
137.2725 2075
137.2981 2075
137.3276 2075
137.3557 2075
137.3793 2075
137.4063 2075
137.4316 2075
137.4556 2075
137.4794 2075
137.5045 2075
137.5345 2075
137.558 2075
137.5817 2075
137.6065 2075
137.6382 2075
137.6613 2075
137.6841 2075
137.7127 2075
137.7381 2075
137.7619 2075
137.7852 2075
137.8107 2075
137.8362 2075
137.8659 2075
137.8903 2075
137.916 2075
137.9447 2075
137.968 2075
137.9986 2075
138.0236 2075
138.0499 2075
138.0736 2075
138.1006 2075
138.132 2075
138.1567 2075
138.1828 2075
138.2069 2075
138.2316 2075
138.2564 2075
138.2799 2075
138.3039 2075
138.33 2075
138.3554 2075
138.379 2075
138.4065 2075
138.4326 2075
138.4585 2075
138.4836 2075
138.5089 2075
138.534 2075
138.5595 2075
138.5835 2075
138.6075 2075
138.6332 2075
138.6605 2075
138.6843 2075
138.7083 2075
138.7331 2075
138.7581 2075
138.7817 2075
138.8057 2075
138.838 2075
138.8686 2075
138.8937 2075
138.9231 2075
138.9508 2075
138.9783 2075
139.0052 2075
139.0291 2075
139.0561 2075
139.0809 2075
139.1052 2075
139.1287 2075
139.1562 2075
139.1847 2075
139.2089 2075
139.2334 2075
139.2589 2075
139.289 2075
139.3125 2075
139.3406 2075
139.3654 2075
139.392 2075
139.4155 2075
139.4394 2075
139.4649 2075
139.4902 2075
139.5179 2075
139.542 2075
139.5676 2075
139.5927 2075
139.6163 2075
139.6439 2075
139.6685 2075
139.6973 2075
139.7212 2075
139.7474 2075
139.7731 2075
139.7982 2075
139.8222 2075
139.8469 2075
139.8744 2075
139.8997 2075
139.924 2075
139.9483 2075
139.9741 2075
140.0008 2075
140.0262 2075
140.0502 2075
140.0756 2075
140.1039 2075
140.1274 2075
140.1509 2075
140.1763 2075
140.2011 2075
140.2245 2075
140.2483 2075
140.2738 2075
140.302 2075
140.3274 2075
140.3509 2075
140.3769 2075
140.4029 2075
140.433 2075
140.4575 2075
140.4907 2075
140.5164 2075
140.5434 2075
140.572 2075
140.5974 2075
140.6267 2075
140.6574 2075
140.6809 2075
140.7063 2075
140.7324 2075
140.757 2075
140.7816 2075
140.8074 2075
140.8332 2075
140.8573 2075
140.881 2075
140.911 2075
140.9353 2075
140.9588 2075
140.9821 2075
141.0084 2075
141.0329 2075
141.0577 2075
141.0847 2075
141.1111 2075
141.1377 2075
141.163 2075
141.1945 2075
141.2197 2075
141.2483 2075
141.2724 2075
141.2958 2075
141.321 2075
141.3475 2075
141.3713 2075
141.399 2075
141.4236 2075
141.4488 2075
141.474 2075
141.4978 2075
141.5306 2075
141.5567 2075
141.5826 2075
141.6073 2075
141.6326 2075
141.6629 2075
141.6862 2075
141.7115 2075
141.7359 2075
141.7634 2075
141.7942 2075
141.8175 2075
141.8425 2075
141.8676 2075
141.8912 2075
141.9166 2075
141.942 2075
141.9734 2075
142.0052 2075
142.0288 2075
142.0534 2075
142.0787 2075
142.1023 2075
142.1281 2075
142.1536 2075
142.1795 2075
142.2045 2075
142.2321 2075
142.2575 2075
142.2823 2075
142.3063 2075
142.3332 2075
142.3584 2075
142.3831 2075
142.4075 2075
142.4321 2075
142.4577 2075
142.4824 2075
142.5062 2075
142.5327 2075
142.5595 2075
142.5842 2075
142.6154 2075
142.6398 2075
142.665 2075
142.6913 2075
142.7186 2075
142.7448 2075
142.7772 2075
142.8027 2075
142.8275 2075
142.8521 2075
142.8768 2075
142.9015 2075
142.9258 2075
142.9503 2075
142.9759 2075
143.0055 2075
143.0305 2075
143.0543 2075
143.0797 2075
143.1051 2075
143.1314 2075
143.1552 2075
143.1815 2075
143.2068 2075
143.2302 2075
143.2541 2075
143.2827 2075
143.3091 2075
143.3335 2075
143.3585 2075
143.3843 2075
143.4093 2075
143.4419 2075
143.4659 2075
143.4918 2075
143.5182 2075
143.5425 2075
143.5666 2075
143.5919 2075
143.62 2075
143.6442 2075
143.6736 2075
143.7069 2075
143.7318 2075
143.7572 2075
143.7816 2075
143.8107 2075
143.8363 2075
143.8597 2075
143.8837 2075
143.9113 2075
143.936 2075
143.9601 2075
143.9849 2075
144.0126 2075
144.0426 2075
144.0658 2075
144.0898 2075
144.1185 2075
144.1444 2075
144.1687 2075
144.193 2075
144.2183 2075
144.2433 2075
144.2675 2075
144.2935 2075
144.3188 2075
144.3497 2075
144.3743 2075
144.3993 2075
144.4259 2075
144.4531 2075
144.4807 2075
144.5044 2075
144.5296 2075
144.5587 2075
144.5822 2075
144.6062 2075
144.6327 2075
144.6594 2075
144.6837 2075
144.7073 2075
144.7381 2075
144.7632 2075
144.7874 2075
144.8116 2075
144.8384 2075
144.8652 2075
144.8891 2075
144.9128 2075
144.9408 2075
144.9672 2075
145.0006 2075
145.0244 2075
145.0504 2075
145.0755 2075
145.0991 2075
145.123 2075
145.1486 2075
145.1737 2075
145.1999 2075
145.2258 2075
145.2509 2075
145.2757 2075
145.2987 2075
145.3262 2075
145.3533 2075
145.3785 2075
145.4118 2075
145.4369 2075
145.4634 2075
145.4886 2075
145.5171 2075
145.5407 2075
145.568 2075
145.5933 2075
145.6166 2075
145.64 2075
145.6646 2075
145.6899 2075
145.7143 2075
145.7382 2075
145.7667 2075
145.7945 2075
145.8196 2075
145.8494 2075
145.8737 2075
145.903 2075
145.9294 2075
145.9544 2075
145.9828 2075
146.0084 2075
146.0322 2075
146.0584 2075
146.0846 2075
146.1179 2075
146.1413 2075
146.1643 2075
146.1927 2075
146.22 2075
146.2435 2075
146.2701 2075
146.2948 2075
146.3201 2075
146.3433 2075
146.3681 2075
146.3936 2075
146.4222 2075
146.4458 2075
146.4715 2075
146.4959 2075
146.5208 2075
146.5445 2075
146.5753 2075
146.6037 2075
146.6294 2075
146.6542 2075
146.6794 2075
146.7056 2075
146.734 2075
146.7642 2075
146.788 2075
146.814 2075
146.841 2075
146.8651 2075
146.8889 2075
146.9139 2075
146.9445 2075
146.9706 2075
146.9987 2075
147.0288 2075
147.0554 2075
147.0836 2075
147.1069 2075
147.1348 2075
147.164 2075
147.1882 2075
147.2189 2075
147.2438 2075
147.2683 2075
147.2928 2075
147.3155 2075
147.341 2075
147.3667 2075
147.3903 2075
147.4136 2075
147.4389 2075
147.464 2075
147.4878 2075
147.5183 2075
147.5427 2075
147.5703 2075
147.5944 2075
147.623 2075
147.6491 2075
147.6742 2075
147.6979 2075
147.7224 2075
147.7477 2075
147.7729 2075
147.8005 2075
147.8248 2075
147.8495 2075
147.8765 2075
147.8996 2075
147.9241 2075
147.9492 2075
147.9741 2075
147.9989 2075
148.0273 2075
148.052 2075
148.0777 2075
148.1068 2075
148.1314 2075
148.1579 2075
148.1866 2075
148.2104 2075
148.24 2075
148.2671 2075
148.2939 2075
148.3182 2075
148.342 2075
148.3699 2075
148.3949 2075
148.418 2075
148.4418 2075
148.4675 2075
148.5007 2075
148.5284 2075
148.5522 2075
148.5798 2075
148.6053 2075
148.6294 2075
148.6547 2075
148.6804 2075
148.7137 2075
148.7371 2075
148.7617 2075
148.7871 2075
148.8128 2075
148.8369 2075
148.8633 2075
148.888 2075
148.9131 2075
148.9403 2075
148.969 2075
148.9986 2075
149.0244 2075
149.0484 2075
149.0734 2075
149.0979 2075
149.1239 2075
149.1508 2075
149.1798 2075
149.2047 2075
149.2349 2075
149.262 2075
149.2893 2075
149.3139 2075
149.3392 2075
149.3638 2075
149.3877 2075
149.4128 2075
149.4387 2075
149.4651 2075
149.4886 2075
149.5132 2075
149.5382 2075
149.5658 2075
149.5894 2075
149.6141 2075
149.6422 2075
149.6688 2075
149.6924 2075
149.7194 2075
149.7456 2075
149.7709 2075
149.7939 2075
149.8195 2075
149.8476 2075
149.8725 2075
149.8985 2075
149.9243 2075
149.9577 2075
149.9842 2075
150.0078 2075
150.0335 2075
150.0585 2075
150.0839 2075
150.1111 2075
150.1362 2075
150.1611 2075
150.1869 2075
150.2105 2075
150.2403 2075
150.2655 2075
150.2892 2075
150.3125 2075
150.3397 2075
150.3642 2075
150.3882 2075
150.4113 2075
150.4383 2075
150.4684 2075
150.4925 2075
150.5168 2075
150.5453 2075
150.572 2075
150.5961 2075
150.6203 2075
150.6451 2075
150.6717 2075
150.6953 2075
150.7191 2075
150.7439 2075
150.7692 2075
150.793 2075
150.8182 2075
150.8478 2075
150.8747 2075
150.8995 2075
150.9297 2075
150.9553 2075
150.9822 2075
151.0069 2075
151.0303 2075
151.0557 2075
151.0807 2075
151.1044 2075
151.1282 2075
151.1563 2075
151.1805 2075
151.2057 2075
151.229 2075
151.2543 2075
151.2787 2075
151.3055 2075
151.3294 2075
151.3556 2075
151.3801 2075
151.406 2075
151.4296 2075
151.4572 2075
151.4832 2075
151.5076 2075
151.5313 2075
151.5585 2075
151.5853 2075
151.6099 2075
151.6338 2075
151.663 2075
151.6882 2075
151.7148 2075
151.7387 2075
151.7662 2075
151.792 2075
151.8182 2075
151.8423 2075
151.8678 2075
151.8925 2075
151.9179 2075
151.9412 2075
151.9666 2075
151.9999 2075
152.0239 2075
152.0502 2075
152.0761 2075
152.1042 2075
152.1282 2075
152.1553 2075
152.18 2075
152.2054 2075
152.2326 2075
152.256 2075
152.2805 2075
152.3057 2075
152.3313 2075
152.3547 2075
152.3792 2075
152.4043 2075
152.4286 2075
152.4535 2075
152.4783 2075
152.5038 2075
152.5292 2075
152.5542 2075
152.5846 2075
152.6102 2075
152.6397 2075
152.6656 2075
152.6913 2075
152.7168 2075
152.7407 2075
152.7648 2075
152.7903 2075
152.8155 2075
152.8393 2075
152.865 2075
152.8898 2075
152.9138 2075
152.9374 2075
152.9611 2075
152.9885 2075
153.0177 2075
153.0428 2075
153.0675 2075
153.0945 2075
153.1208 2075
153.1446 2075
153.1716 2075
153.1972 2075
153.2232 2075
153.2463 2075
153.2705 2075
153.2948 2075
153.3219 2075
153.3455 2075
153.3736 2075
153.3986 2075
153.4239 2075
153.4487 2075
153.4762 2075
153.5014 2075
153.5286 2075
153.5518 2075
153.5755 2075
153.6026 2075
153.6276 2075
153.6514 2075
153.6754 2075
153.7012 2075
153.7278 2075
153.7521 2075
153.7763 2075
153.8027 2075
153.8282 2075
153.8557 2075
153.8788 2075
153.905 2075
153.9299 2075
153.954 2075
153.978 2075
154.0038 2075
154.0303 2075
154.0562 2075
154.0808 2075
154.1072 2075
154.1333 2075
154.1592 2075
154.184 2075
154.2103 2075
154.2418 2075
154.266 2075
154.2894 2075
154.3141 2075
154.3389 2075
154.3622 2075
154.3874 2075
154.4127 2075
154.4377 2075
154.4619 2075
154.4857 2075
154.5108 2075
154.5357 2075
154.5608 2075
154.5847 2075
154.6098 2075
154.6349 2075
154.6585 2075
154.6833 2075
154.7163 2075
154.742 2075
154.7667 2075
154.7903 2075
154.8167 2075
154.8443 2075
154.8688 2075
154.893 2075
154.9197 2075
154.9472 2075
154.9712 2075
154.9985 2075
155.0231 2075
155.0493 2075
155.0731 2075
155.0962 2075
155.1221 2075
155.1467 2075
155.1703 2075
155.1992 2075
155.2244 2075
155.2524 2075
155.2777 2075
155.302 2075
155.3277 2075
155.3571 2075
155.3817 2075
155.4106 2075
155.4358 2075
155.4606 2075
155.4859 2075
155.5092 2075
155.5345 2075
155.5593 2075
155.5847 2075
155.6081 2075
155.6333 2075
155.6584 2075
155.6821 2075
155.7083 2075
155.7355 2075
155.7607 2075
155.7845 2075
155.8102 2075
155.8357 2075
155.8614 2075
155.8846 2075
155.9095 2075
155.9351 2075
155.9611 2075
155.9873 2075
156.0119 2075
156.0372 2075
156.0623 2075
156.088 2075
156.1112 2075
156.1365 2075
156.1615 2075
156.1862 2075
156.2102 2075
156.2355 2075
156.2602 2075
156.284 2075
156.3075 2075
156.3333 2075
156.362 2075
156.3862 2075
156.4128 2075
156.437 2075
156.4619 2075
156.487 2075
156.5109 2075
156.5363 2075
156.563 2075
156.5885 2075
156.6121 2075
156.6385 2075
156.6634 2075
156.6948 2075
156.719 2075
156.7445 2075
156.7707 2075
156.7945 2075
156.8187 2075
156.8434 2075
156.869 2075
156.8925 2075
156.9193 2075
156.9445 2075
156.9718 2075
157.0002 2075
157.0244 2075
157.0501 2075
157.0781 2075
157.105 2075
157.1282 2075
157.1579 2075
157.185 2075
157.2107 2075
157.2361 2075
157.261 2075
157.2877 2075
157.3105 2075
157.3367 2075
157.3616 2075
157.3865 2075
157.4123 2075
157.4361 2075
157.4616 2075
157.4915 2075
157.5142 2075
157.5402 2075
157.5657 2075
157.5946 2075
157.6222 2075
157.6477 2075
157.6729 2075
157.6982 2075
157.7243 2075
157.7475 2075
157.7735 2075
157.7989 2075
157.823 2075
157.8462 2075
157.8713 2075
157.8961 2075
157.9201 2075
157.9436 2075
157.9693 2075
157.999 2075
158.0298 2075
158.0535 2075
158.0785 2075
158.1039 2075
158.1335 2075
158.1571 2075
158.1815 2075
158.208 2075
158.2321 2075
158.2613 2075
158.2868 2075
158.3118 2075
158.3367 2075
158.3601 2075
158.3856 2075
158.4104 2075
158.4344 2075
158.4582 2075
158.4846 2075
158.5093 2075
158.5368 2075
158.5607 2075
158.5872 2075
158.616 2075
158.6413 2075
158.6682 2075
158.6958 2075
158.721 2075
158.7446 2075
158.7692 2075
158.7943 2075
158.8193 2075
158.8452 2075
158.87 2075
158.8953 2075
158.9207 2075
158.9492 2075
158.977 2075
159.0037 2075
159.0285 2075
159.0525 2075
159.0765 2075
159.1019 2075
159.1278 2075
159.1525 2075
159.1767 2075
159.2037 2075
159.2293 2075
159.2539 2075
159.2781 2075
159.3036 2075
159.3285 2075
159.3537 2075
159.381 2075
159.4084 2075
159.4331 2075
159.4575 2075
159.4807 2075
159.5056 2075
159.5307 2075
159.5597 2075
159.5888 2075
159.6127 2075
159.6375 2075
159.6642 2075
159.6886 2075
159.7132 2075
159.7388 2075
159.7647 2075
159.798 2075
159.8269 2075
159.8583 2075
159.8816 2075
159.9055 2075
159.9305 2075
159.9594 2075
159.9865 2075
160.0101 2075
160.037 2075
160.0661 2075
160.0931 2075
160.1178 2075
160.1428 2075
160.1712 2075
160.2007 2075
160.2251 2075
160.251 2075
160.2767 2075
160.3025 2075
160.3269 2075
160.3538 2075
160.3797 2075
160.4043 2075
160.4278 2075
160.4545 2075
160.4791 2075
160.5058 2075
160.5331 2075
160.5584 2075
160.5838 2075
160.6072 2075
160.6305 2075
160.6554 2075
160.6808 2075
160.7044 2075
160.7278 2075
160.7529 2075
160.7785 2075
160.8032 2075
160.8289 2075
160.8559 2075
160.8813 2075
160.9073 2075
160.9309 2075
160.9561 2075
160.9864 2075
161.0098 2075
161.0336 2075
161.0587 2075
161.0846 2075
161.1131 2075
161.1371 2075
161.1624 2075
161.1875 2075
161.2112 2075
161.235 2075
161.2622 2075
161.2893 2075
161.316 2075
161.3403 2075
161.3646 2075
161.391 2075
161.4165 2075
161.448 2075
161.4737 2075
161.506 2075
161.5332 2075
161.5567 2075
161.5844 2075
161.6106 2075
161.6366 2075
161.6604 2075
161.6862 2075
161.7149 2075
161.7393 2075
161.7631 2075
161.7889 2075
161.8196 2075
161.8435 2075
161.8713 2075
161.903 2075
161.9323 2075
161.9564 2075
161.9808 2075
162.0107 2075
162.0357 2075
162.0591 2075
162.0851 2075
162.1131 2075
162.1383 2075
162.1619 2075
162.1863 2075
162.2125 2075
162.2457 2075
162.2707 2075
162.2936 2075
162.32 2075
162.3442 2075
162.368 2075
162.3918 2075
162.4227 2075
162.4482 2075
162.4731 2075
162.4971 2075
162.5244 2075
162.5518 2075
162.5755 2075
162.5989 2075
162.6246 2075
162.6494 2075
162.6744 2075
162.6979 2075
162.723 2075
162.7485 2075
162.7718 2075
162.8024 2075
162.8276 2075
162.8537 2075
162.8815 2075
162.9053 2075
162.93 2075
162.9561 2075
162.9806 2075
163.0051 2075
163.0316 2075
163.0574 2075
163.0831 2075
163.1109 2075
163.1397 2075
163.1642 2075
163.1927 2075
163.2163 2075
163.2496 2075
163.2744 2075
163.3005 2075
163.33 2075
163.3544 2075
163.3783 2075
163.4022 2075
163.4274 2075
163.4537 2075
163.48 2075
163.5087 2075
163.5311 2075
163.5593 2075
163.5854 2075
163.6088 2075
163.632 2075
163.6616 2075
163.6891 2075
163.713 2075
163.7418 2075
163.7671 2075
163.7952 2075
163.8192 2075
163.8437 2075
163.8693 2075
163.8948 2075
163.9191 2075
163.9426 2075
163.976 2075
164.0017 2075
164.026 2075
164.0515 2075
164.078 2075
164.1046 2075
164.1283 2075
164.1525 2075
164.1772 2075
164.2041 2075
164.2272 2075
164.2509 2075
164.2756 2075
164.3009 2075
164.3259 2075
164.3507 2075
164.3767 2075
164.4017 2075
164.4256 2075
164.4514 2075
164.4797 2075
164.5059 2075
164.5307 2075
164.5551 2075
164.5799 2075
164.6053 2075
164.63 2075
164.6564 2075
164.6862 2075
164.7123 2075
164.7359 2075
164.7604 2075
164.7922 2075
164.8179 2075
164.8415 2075
164.8652 2075
164.891 2075
164.92 2075
164.9439 2075
164.9679 2075
164.9931 2075
165.0181 2075
165.0421 2075
165.0684 2075
165.0973 2075
165.1258 2075
165.1502 2075
165.1731 2075
165.1986 2075
165.2241 2075
165.2502 2075
165.274 2075
165.3009 2075
165.3278 2075
165.3518 2075
165.3756 2075
165.4019 2075
165.4274 2075
165.4581 2075
165.484 2075
165.5088 2075
165.5342 2075
165.5631 2075
165.595 2075
165.6196 2075
165.6441 2075
165.6722 2075
165.6994 2075
165.7257 2075
165.7527 2075
165.7767 2075
165.8012 2075
165.8286 2075
165.8546 2075
165.8778 2075
165.9029 2075
165.928 2075
165.9549 2075
165.9788 2075
166.0043 2075
166.0332 2075
166.0581 2075
166.0826 2075
166.1072 2075
166.1333 2075
166.1585 2075
166.1854 2075
166.209 2075
166.2345 2075
166.2617 2075
166.2862 2075
166.3137 2075
166.3419 2075
166.3674 2075
166.3921 2075
166.4179 2075
166.4434 2075
166.4692 2075
166.4928 2075
166.5167 2075
166.5418 2075
166.5674 2075
166.5919 2075
166.6186 2075
166.6432 2075
166.668 2075
166.694 2075
166.7179 2075
166.7447 2075
166.7697 2075
166.7947 2075
166.8185 2075
166.8449 2075
166.8714 2075
166.8968 2075
166.9209 2075
166.9495 2075
166.976 2075
167.0005 2075
167.0279 2075
167.0531 2075
167.0779 2075
167.1018 2075
167.1291 2075
167.1541 2075
167.1827 2075
167.2104 2075
167.234 2075
167.259 2075
167.2856 2075
167.3096 2075
167.3343 2075
167.3627 2075
167.389 2075
167.4132 2075
167.4372 2075
167.4621 2075
167.4877 2075
167.513 2075
167.5388 2075
167.5637 2075
167.5886 2075
167.6119 2075
167.6387 2075
167.6633 2075
167.6897 2075
167.7137 2075
167.7374 2075
167.7624 2075
167.7875 2075
167.8122 2075
167.8358 2075
167.8609 2075
167.8869 2075
167.9126 2075
167.9379 2075
167.9681 2075
167.9968 2075
168.0207 2075
168.0456 2075
168.0707 2075
168.096 2075
168.1192 2075
168.1431 2075
168.1703 2075
168.1959 2075
168.2198 2075
168.2434 2075
168.2687 2075
168.2941 2075
168.3179 2075
168.3423 2075
168.3683 2075
168.393 2075
168.4171 2075
168.4406 2075
168.4654 2075
168.4952 2075
168.5262 2075
168.5522 2075
168.5783 2075
168.6038 2075
168.6322 2075
168.6611 2075
168.6863 2075
168.7119 2075
168.7357 2075
168.7595 2075
168.785 2075
168.8102 2075
168.8343 2075
168.8615 2075
168.8879 2075
168.9134 2075
168.9383 2075
168.9635 2075
168.991 2075
169.017 2075
169.0415 2075
169.0696 2075
169.0965 2075
169.1212 2075
169.1451 2075
169.1716 2075
169.1983 2075
169.2251 2075
169.2543 2075
169.2785 2075
169.3068 2075
169.3319 2075
169.3579 2075
169.3814 2075
169.4066 2075
169.4365 2075
169.4667 2075
169.4906 2075
169.5165 2075
169.5421 2075
169.5686 2075
169.5931 2075
169.6196 2075
169.6454 2075
169.6693 2075
169.6933 2075
169.7187 2075
169.7442 2075
169.768 2075
169.7914 2075
169.819 2075
169.8444 2075
169.8684 2075
169.8983 2075
169.9311 2075
169.9599 2075
169.9851 2075
170.0096 2075
170.0395 2075
170.0653 2075
170.0906 2075
170.1143 2075
170.1405 2075
170.1653 2075
170.1895 2075
170.2145 2075
170.2391 2075
170.2684 2075
170.2924 2075
170.316 2075
170.3414 2075
170.3748 2075
170.3981 2075
170.4218 2075
170.4482 2075
170.4731 2075
170.4964 2075
170.5202 2075
170.5476 2075
170.5758 2075
170.6006 2075
170.6252 2075
170.6545 2075
170.6828 2075
170.7069 2075
170.7314 2075
170.7577 2075
170.7825 2075
170.8089 2075
170.832 2075
170.8617 2075
170.8869 2075
170.9107 2075
170.9355 2075
170.962 2075
170.9875 2075
171.0143 2075
171.0378 2075
171.0643 2075
171.0896 2075
171.1128 2075
171.1368 2075
171.1658 2075
171.1919 2075
171.2176 2075
171.2429 2075
171.2691 2075
171.2943 2075
171.3182 2075
171.3415 2075
171.3748 2075
171.4002 2075
171.4239 2075
171.4475 2075
171.4727 2075
171.4977 2075
171.5212 2075
171.5472 2075
171.5741 2075
171.6006 2075
171.6262 2075
171.6534 2075
171.6788 2075
171.7043 2075
171.7277 2075
171.753 2075
171.7821 2075
171.8087 2075
171.832 2075
171.8564 2075
171.8813 2075
171.9067 2075
171.9297 2075
171.9536 2075
171.9844 2075
172.0105 2075
172.0342 2075
172.0581 2075
172.086 2075
172.1172 2075
172.1406 2075
172.1692 2075
172.1946 2075
172.2218 2075
172.2457 2075
172.2701 2075
172.295 2075
172.3207 2075
172.3444 2075
172.3753 2075
172.4006 2075
172.4268 2075
172.4511 2075
172.4749 2075
172.5083 2075
172.537 2075
172.5609 2075
172.5867 2075
172.612 2075
172.6372 2075
172.6606 2075
172.6846 2075
172.7094 2075
172.7351 2075
172.759 2075
172.7852 2075
172.8123 2075
172.8383 2075
172.867 2075
172.895 2075
172.9202 2075
172.9479 2075
172.9726 2075
172.9985 2075
173.0244 2075
173.0491 2075
173.0729 2075
173.0974 2075
173.1238 2075
173.1485 2075
173.1728 2075
173.2017 2075
173.2272 2075
173.2527 2075
173.2788 2075
173.3037 2075
173.337 2075
173.3618 2075
173.3868 2075
173.4119 2075
173.4373 2075
173.4655 2075
173.4891 2075
173.5165 2075
173.541 2075
173.5672 2075
173.591 2075
173.6199 2075
173.6478 2075
173.6721 2075
173.6953 2075
173.7193 2075
173.745 2075
173.7704 2075
173.7964 2075
173.821 2075
173.8479 2075
173.8736 2075
173.8979 2075
173.9244 2075
173.9503 2075
173.9757 2075
174.0004 2075
174.0242 2075
174.0493 2075
174.0787 2075
174.1029 2075
174.1267 2075
174.1526 2075
174.1775 2075
174.2019 2075
174.2281 2075
174.2548 2075
174.2797 2075
174.304 2075
174.3289 2075
174.3548 2075
174.3797 2075
174.4092 2075
174.4347 2075
174.4675 2075
174.4951 2075
174.5197 2075
174.5437 2075
174.5696 2075
174.5994 2075
174.6251 2075
174.6482 2075
174.6751 2075
174.7009 2075
174.7247 2075
174.7492 2075
174.7748 2075
174.7998 2075
174.8251 2075
174.8494 2075
174.875 2075
174.9005 2075
174.9242 2075
174.9518 2075
174.9772 2075
175.0044 2075
175.0288 2075
175.0537 2075
175.0794 2075
175.1074 2075
175.1319 2075
175.1553 2075
175.1802 2075
175.2118 2075
175.2364 2075
175.2604 2075
175.286 2075
175.3118 2075
175.3359 2075
175.3596 2075
175.3885 2075
175.4162 2075
175.4395 2075
175.4635 2075
175.4896 2075
175.5145 2075
175.539 2075
175.5625 2075
175.5898 2075
175.6154 2075
175.6396 2075
175.666 2075
175.6924 2075
175.7222 2075
175.7488 2075
175.7722 2075
175.7974 2075
175.8229 2075
175.8462 2075
175.8702 2075
175.8985 2075
175.9283 2075
175.9525 2075
175.9767 2075
176.0017 2075
176.0312 2075
176.0565 2075
176.0809 2075
176.1093 2075
176.1345 2075
176.1592 2075
176.183 2075
176.2083 2075
176.2334 2075
176.2575 2075
176.2805 2075
176.3098 2075
176.3405 2075
176.3635 2075
176.3889 2075
176.4144 2075
176.4397 2075
176.4632 2075
176.4872 2075
176.5126 2075
176.5421 2075
176.5662 2075
176.5941 2075
176.6205 2075
176.646 2075
176.6728 2075
176.6973 2075
176.725 2075
176.7526 2075
176.776 2075
176.7994 2075
176.8247 2075
176.8495 2075
176.8806 2075
176.9043 2075
176.9296 2075
176.9545 2075
176.983 2075
177.0066 2075
177.0314 2075
177.0592 2075
177.0845 2075
177.1095 2075
177.1358 2075
177.1636 2075
177.1927 2075
177.2157 2075
177.2406 2075
177.2653 2075
177.2893 2075
177.3165 2075
177.3429 2075
177.3726 2075
177.3955 2075
177.4195 2075
177.4446 2075
177.4718 2075
177.4964 2075
177.5254 2075
177.5499 2075
177.575 2075
177.5987 2075
177.6263 2075
177.6534 2075
177.6813 2075
177.7109 2075
177.7339 2075
177.7606 2075
177.7905 2075
177.8141 2075
177.8412 2075
177.8663 2075
177.893 2075
177.9164 2075
177.9415 2075
177.9676 2075
177.9971 2075
178.0211 2075
178.0443 2075
178.0707 2075
178.0959 2075
178.1202 2075
178.1445 2075
178.1695 2075
178.1945 2075
178.2187 2075
178.2472 2075
178.2806 2075
178.3067 2075
178.3311 2075
178.3558 2075
178.3869 2075
178.4141 2075
178.4392 2075
178.4661 2075
178.4919 2075
178.521 2075
178.5446 2075
178.5688 2075
178.5947 2075
178.6204 2075
178.644 2075
178.6679 2075
178.6973 2075
178.7232 2075
178.7509 2075
178.7779 2075
178.8038 2075
178.8309 2075
178.8575 2075
178.8824 2075
178.9082 2075
178.9362 2075
178.9627 2075
178.9893 2075
179.0153 2075
179.042 2075
179.0696 2075
179.0931 2075
179.1188 2075
179.1504 2075
179.1734 2075
179.1971 2075
179.2226 2075
179.2559 2075
179.284 2075
179.3098 2075
179.3431 2075
179.3691 2075
179.3925 2075
179.4175 2075
179.4435 2075
179.4693 2075
179.4961 2075
179.5217 2075
179.5469 2075
179.5726 2075
179.5957 2075
179.6198 2075
179.6455 2075
179.6709 2075
179.6952 2075
179.7203 2075
179.7457 2075
179.771 2075
179.7945 2075
179.8191 2075
179.8483 2075
179.8786 2075
179.9027 2075
179.9267 2075
179.9533 2075
179.98 2075
180.0051 2075
180.0289 2075
180.0563 2075
180.0812 2075
180.105 2075
180.1319 2075
180.1604 2075
180.1875 2075
180.2109 2075
180.2407 2075
180.2686 2075
180.2937 2075
180.3176 2075
180.3413 2075
180.3669 2075
180.3972 2075
180.4205 2075
180.4501 2075
180.4754 2075
180.502 2075
180.5273 2075
180.552 2075
180.5778 2075
180.6053 2075
180.6298 2075
180.6538 2075
180.6795 2075
180.7089 2075
180.7339 2075
180.7624 2075
180.7877 2075
180.8136 2075
180.8381 2075
180.8616 2075
180.8876 2075
180.9209 2075
180.9467 2075
180.9779 2075
181.0028 2075
181.0279 2075
181.0522 2075
181.0776 2075
181.1047 2075
181.134 2075
181.1574 2075
181.181 2075
181.2065 2075
181.2326 2075
181.257 2075
181.2803 2075
181.3078 2075
181.3358 2075
181.3589 2075
181.382 2075
181.4075 2075
181.4397 2075
181.4642 2075
181.4876 2075
181.5171 2075
181.5439 2075
181.5687 2075
181.5927 2075
181.6202 2075
181.6464 2075
181.6702 2075
181.6954 2075
181.7208 2075
181.747 2075
181.7731 2075
181.7982 2075
181.8249 2075
181.8532 2075
181.8766 2075
181.9013 2075
181.9312 2075
181.9589 2075
181.989 2075
182.0121 2075
182.0421 2075
182.0675 2075
182.0915 2075
182.1146 2075
182.1406 2075
182.1661 2075
182.191 2075
182.2146 2075
182.242 2075
182.27 2075
182.293 2075
182.3172 2075
182.3471 2075
182.374 2075
182.3971 2075
182.4202 2075
182.4462 2075
182.4715 2075
182.4988 2075
182.5229 2075
182.5538 2075
182.5808 2075
182.605 2075
182.6292 2075
182.6561 2075
182.683 2075
182.7074 2075
182.7316 2075
182.7573 2075
182.7832 2075
182.8069 2075
182.8312 2075
182.8606 2075
182.8892 2075
182.9118 2075
182.9363 2075
182.9615 2075
182.9872 2075
183.0109 2075
183.0348 2075
183.061 2075
183.086 2075
183.1091 2075
183.1373 2075
183.163 2075
183.1892 2075
183.2128 2075
183.2387 2075
183.2661 2075
183.2917 2075
183.3186 2075
183.3422 2075
183.368 2075
183.3973 2075
183.4213 2075
183.4453 2075
183.4711 2075
183.5043 2075
183.528 2075
183.554 2075
183.58 2075
183.6062 2075
183.6299 2075
183.6538 2075
183.686 2075
183.7117 2075
183.7361 2075
183.7619 2075
183.7872 2075
183.8127 2075
183.8406 2075
183.8634 2075
183.8884 2075
183.9187 2075
183.9423 2075
183.966 2075
183.998 2075
184.0226 2075
184.0461 2075
184.0712 2075
184.0963 2075
184.1216 2075
184.147 2075
184.1754 2075
184.2022 2075
184.228 2075
184.2533 2075
184.2777 2075
184.3062 2075
184.3316 2075
184.3582 2075
184.3815 2075
184.4074 2075
184.4333 2075
184.457 2075
184.482 2075
184.5103 2075
184.536 2075
184.5607 2075
184.5861 2075
184.6163 2075
184.6418 2075
184.6702 2075
184.6946 2075
184.7206 2075
184.7457 2075
184.7695 2075
184.7928 2075
184.8201 2075
184.8453 2075
184.8701 2075
184.8938 2075
184.9194 2075
184.9457 2075
184.9701 2075
184.9977 2075
185.0226 2075
185.0483 2075
185.0722 2075
185.0977 2075
185.1226 2075
185.1475 2075
185.1743 2075
185.2038 2075
185.2301 2075
185.2596 2075
185.2835 2075
185.3078 2075
185.3392 2075
185.3645 2075
185.3883 2075
185.4119 2075
185.4375 2075
185.4625 2075
185.4864 2075
185.5101 2075
185.5359 2075
185.5615 2075
185.5854 2075
185.6091 2075
185.638 2075
185.6632 2075
185.6875 2075
185.7109 2075
185.7377 2075
185.7635 2075
185.7872 2075
185.8135 2075
185.8394 2075
185.8653 2075
185.8931 2075
185.9168 2075
185.9462 2075
185.9721 2075
186.001 2075
186.0246 2075
186.0531 2075
186.079 2075
186.1026 2075
186.1254 2075
186.1538 2075
186.1791 2075
186.2036 2075
186.2368 2075
186.2624 2075
186.2881 2075
186.3137 2075
186.3374 2075
186.3627 2075
186.3883 2075
186.4119 2075
186.4362 2075
186.4614 2075
186.4931 2075
186.5166 2075
186.5423 2075
186.5679 2075
186.5969 2075
186.6214 2075
186.6486 2075
186.6732 2075
186.6989 2075
186.7233 2075
186.7467 2075
186.7734 2075
186.7995 2075
186.8238 2075
186.8478 2075
186.8775 2075
186.9041 2075
186.9276 2075
186.9542 2075
186.9791 2075
187.0047 2075
187.0297 2075
187.0542 2075
187.0809 2075
187.108 2075
187.1312 2075
187.1556 2075
187.1808 2075
187.2095 2075
187.2322 2075
187.2559 2075
187.2815 2075
187.3068 2075
187.3308 2075
187.3544 2075
187.3802 2075
187.4135 2075
187.4382 2075
187.4643 2075
187.4906 2075
187.5196 2075
187.5439 2075
187.5685 2075
187.5954 2075
187.624 2075
187.6477 2075
187.6712 2075
187.6973 2075
187.7242 2075
187.7476 2075
187.7711 2075
187.7964 2075
187.8274 2075
187.8525 2075
187.8775 2075
187.9066 2075
187.9321 2075
187.9557 2075
187.9802 2075
188.0081 2075
188.0329 2075
188.0625 2075
188.0868 2075
188.1119 2075
188.1382 2075
188.1629 2075
188.1907 2075
188.216 2075
188.2421 2075
188.2674 2075
188.2914 2075
188.3214 2075
188.3457 2075
188.3705 2075
188.3957 2075
188.4234 2075
188.4494 2075
188.4742 2075
188.5024 2075
188.5283 2075
188.5542 2075
188.5776 2075
188.6013 2075
188.6288 2075
188.6541 2075
188.6776 2075
188.7025 2075
188.7292 2075
188.7567 2075
188.782 2075
188.8059 2075
188.8342 2075
188.8669 2075
188.8995 2075
188.9243 2075
188.9488 2075
188.9744 2075
188.9972 2075
189.0278 2075
189.0585 2075
189.0834 2075
189.111 2075
189.1346 2075
189.1679 2075
189.1964 2075
189.2199 2075
189.2437 2075
189.269 2075
189.2961 2075
189.3197 2075
189.3444 2075
189.3697 2075
189.396 2075
189.4217 2075
189.4511 2075
189.4768 2075
189.5058 2075
189.5365 2075
189.5628 2075
189.588 2075
189.6131 2075
189.6366 2075
189.6603 2075
189.686 2075
189.7125 2075
189.7362 2075
189.7599 2075
189.7885 2075
189.8131 2075
189.8362 2075
189.8599 2075
189.8861 2075
189.915 2075
189.9396 2075
189.9634 2075
189.9891 2075
190.0209 2075
190.0495 2075
190.0757 2075
190.109 2075
190.1354 2075
190.1596 2075
190.1832 2075
190.2083 2075
190.2369 2075
190.2605 2075
190.284 2075
190.3093 2075
190.3379 2075
190.3631 2075
190.388 2075
190.4136 2075
190.4391 2075
190.4625 2075
190.486 2075
190.5193 2075
190.5469 2075
190.5737 2075
190.5984 2075
190.6238 2075
190.6511 2075
190.6751 2075
190.7001 2075
190.7268 2075
190.7532 2075
190.7842 2075
190.8113 2075
190.8366 2075
190.8622 2075
190.8858 2075
190.9092 2075
190.9345 2075
190.961 2075
190.9845 2075
191.0083 2075
191.0335 2075
191.0587 2075
191.0844 2075
191.1083 2075
191.1343 2075
191.1599 2075
191.1846 2075
191.2078 2075
191.233 2075
191.2587 2075
191.2896 2075
191.3138 2075
191.3391 2075
191.3641 2075
191.3931 2075
191.4166 2075
191.4413 2075
191.467 2075
191.4902 2075
191.5141 2075
191.5398 2075
191.5708 2075
191.5947 2075
191.623 2075
191.6482 2075
191.6744 2075
191.6983 2075
191.7224 2075
191.7483 2075
191.7741 2075
191.8016 2075
191.8246 2075
191.8514 2075
191.8762 2075
191.8998 2075
191.9262 2075
191.9514 2075
191.9766 2075
192.0004 2075
192.0277 2075
192.0591 2075
192.0836 2075
192.1129 2075
192.1366 2075
192.1635 2075
192.1907 2075
192.2137 2075
192.238 2075
192.2637 2075
192.2901 2075
192.3149 2075
192.3389 2075
192.3649 2075
192.3916 2075
192.4171 2075
192.4444 2075
192.4695 2075
192.495 2075
192.5184 2075
192.5419 2075
192.5672 2075
192.5921 2075
192.6154 2075
192.6392 2075
192.6695 2075
192.6966 2075
192.7202 2075
192.7435 2075
192.7746 2075
192.8002 2075
192.8234 2075
192.8473 2075
192.8725 2075
192.8982 2075
192.9223 2075
192.9477 2075
192.9738 2075
192.9991 2075
193.0228 2075
193.0483 2075
193.0744 2075
193.0993 2075
193.1226 2075
193.1474 2075
193.1725 2075
193.1981 2075
193.2214 2075
193.2452 2075
193.2702 2075
193.2984 2075
193.3217 2075
193.3459 2075
193.3709 2075
193.3961 2075
193.4197 2075
193.4427 2075
193.4683 2075
193.4937 2075
193.5204 2075
193.5502 2075
193.5755 2075
193.6012 2075
193.6244 2075
193.6485 2075
193.6753 2075
193.7 2075
193.7234 2075
193.7519 2075
193.7766 2075
193.8067 2075
193.8306 2075
193.8549 2075
193.8802 2075
193.9046 2075
193.9297 2075
193.9556 2075
193.9807 2075
194.0056 2075
194.0292 2075
194.0535 2075
194.079 2075
194.1042 2075
194.1283 2075
194.1527 2075
194.1783 2075
194.2053 2075
194.2285 2075
194.2618 2075
194.2872 2075
194.3128 2075
194.3356 2075
194.36 2075
194.3851 2075
194.4097 2075
194.4334 2075
194.4568 2075
194.4822 2075
194.5126 2075
194.5375 2075
194.5664 2075
194.5926 2075
194.6173 2075
194.6401 2075
194.6643 2075
194.6954 2075
194.7247 2075
194.749 2075
194.7736 2075
194.799 2075
194.8273 2075
194.8513 2075
194.8769 2075
194.9029 2075
194.9318 2075
194.9558 2075
194.9792 2075
195.0041 2075
195.0296 2075
195.0555 2075
195.079 2075
195.1044 2075
195.1314 2075
195.1564 2075
195.184 2075
195.2129 2075
195.2377 2075
195.2614 2075
195.2897 2075
195.3159 2075
195.3438 2075
195.3704 2075
195.396 2075
195.4212 2075
195.4479 2075
195.472 2075
195.4962 2075
195.5245 2075
195.5497 2075
195.5729 2075
195.6046 2075
195.6298 2075
195.657 2075
195.6804 2075
195.7038 2075
195.7302 2075
195.7611 2075
195.7854 2075
195.813 2075
195.8381 2075
195.8637 2075
195.8895 2075
195.9154 2075
195.9404 2075
195.966 2075
195.9902 2075
196.0138 2075
196.0388 2075
196.0644 2075
196.0879 2075
196.111 2075
196.1373 2075
196.1628 2075
196.1864 2075
196.2135 2075
196.2384 2075
196.2645 2075
196.2886 2075
196.3161 2075
196.3471 2075
196.3733 2075
196.3979 2075
196.4223 2075
196.4477 2075
196.4734 2075
196.497 2075
196.5206 2075
196.5465 2075
196.5722 2075
196.599 2075
196.6227 2075
196.6495 2075
196.6757 2075
196.6996 2075
196.7245 2075
196.7502 2075
196.7774 2075
196.8025 2075
196.8332 2075
196.8604 2075
196.8857 2075
196.9088 2075
196.9324 2075
196.9577 2075
196.9829 2075
197.0072 2075
197.031 2075
197.0574 2075
197.0825 2075
197.1064 2075
197.1333 2075
197.1596 2075
197.1848 2075
197.2084 2075
197.233 2075
197.2595 2075
197.285 2075
197.3082 2075
197.3319 2075
197.3586 2075
197.3846 2075
197.4085 2075
197.4324 2075
197.458 2075
197.4867 2075
197.5102 2075
197.537 2075
197.5622 2075
197.5878 2075
197.6116 2075
197.6364 2075
197.6616 2075
197.6903 2075
197.7141 2075
197.7375 2075
197.7641 2075
197.7892 2075
197.8138 2075
197.8374 2075
197.8656 2075
197.8908 2075
197.9147 2075
197.9402 2075
197.9676 2075
197.9984 2075
198.0233 2075
198.0479 2075
198.0743 2075
198.0994 2075
198.1232 2075
198.1468 2075
198.172 2075
198.1973 2075
198.2213 2075
198.2445 2075
198.2733 2075
198.2995 2075
198.3241 2075
198.3486 2075
198.3744 2075
198.4065 2075
198.4311 2075
198.4552 2075
198.4885 2075
198.5142 2075
198.5412 2075
198.5658 2075
198.5912 2075
198.6192 2075
198.6426 2075
198.6688 2075
198.6979 2075
198.7233 2075
198.7508 2075
198.7741 2075
198.7993 2075
198.8244 2075
198.8568 2075
198.8802 2075
198.9085 2075
198.9367 2075
198.9611 2075
198.9863 2075
199.016 2075
199.0449 2075
199.0722 2075
199.0957 2075
199.1214 2075
199.1476 2075
199.1713 2075
199.1947 2075
199.2209 2075
199.2459 2075
199.2702 2075
199.2935 2075
199.3232 2075
199.3485 2075
199.3717 2075
199.3952 2075
199.4207 2075
199.4459 2075
199.4707 2075
199.4939 2075
199.5215 2075
199.5472 2075
199.5753 2075
199.6002 2075
199.6304 2075
199.6567 2075
199.6815 2075
199.7054 2075
199.734 2075
199.7596 2075
199.784 2075
199.8077 2075
199.8353 2075
199.861 2075
199.8891 2075
199.9127 2075
199.9382 2075
199.9654 2075
199.9928 2075
200.0169 2075
200.0426 2075
200.0699 2075
200.0933 2075
200.1173 2075
200.1427 2075
200.1691 2075
200.1943 2075
200.2201 2075
200.2488 2075
200.2755 2075
200.3043 2075
200.3282 2075
200.3543 2075
200.3825 2075
200.4063 2075
200.4361 2075
200.4639 2075
200.4889 2075
200.5138 2075
200.5395 2075
200.5658 2075
200.5973 2075
200.6219 2075
200.6481 2075
200.6759 2075
200.7019 2075
200.7254 2075
200.7493 2075
200.776 2075
200.8057 2075
200.8295 2075
200.8534 2075
200.8786 2075
200.9075 2075
200.9321 2075
200.9561 2075
200.9867 2075
201.0192 2075
201.0433 2075
201.0677 2075
201.0924 2075
201.1181 2075
201.1419 2075
201.1664 2075
201.1963 2075
201.2221 2075
201.2484 2075
201.2735 2075
201.3 2075
201.3257 2075
201.3511 2075
201.3752 2075
201.401 2075
201.4289 2075
201.4613 2075
201.4858 2075
201.5145 2075
201.539 2075
201.5645 2075
201.5885 2075
201.6177 2075
201.644 2075
201.6687 2075
201.6929 2075
201.7234 2075
201.7487 2075
201.7779 2075
201.8017 2075
201.8267 2075
201.8544 2075
201.8812 2075
201.9048 2075
201.9338 2075
201.9584 2075
201.9823 2075
202.006 2075
202.0314 2075
202.0607 2075
202.0855 2075
202.1092 2075
202.1345 2075
202.1598 2075
202.1843 2075
202.2124 2075
202.2387 2075
202.2688 2075
202.2956 2075
202.32 2075
202.3452 2075
202.3711 2075
202.3944 2075
202.4178 2075
202.4433 2075
202.4687 2075
202.494 2075
202.4972 2075
202.5086 2075
202.5193 2075
202.5319 2075
202.5424 2075
202.5536 2075
202.5647 2075
202.5885 2075
202.613 2075
202.6402 2075
202.6657 2075
202.6902 2075
202.7138 2075
202.7393 2075
202.7691 2075
202.7949 2075
202.8227 2075
202.8493 2075
202.8761 2075
202.9005 2075
202.9265 2075
202.9558 2075
202.9806 2075
203.0089 2075
203.0329 2075
203.0617 2075
203.0882 2075
203.1115 2075
203.1349 2075
203.1603 2075
203.1861 2075
203.2101 2075
203.2345 2075
203.2633 2075
203.291 2075
203.315 2075
203.3388 2075
203.3677 2075
203.395 2075
203.4186 2075
203.4437 2075
203.4699 2075
203.4955 2075
203.52 2075
203.5434 2075
203.5692 2075
203.5943 2075
203.6181 2075
203.6434 2075
203.6687 2075
203.6944 2075
203.7182 2075
203.7417 2075
203.7675 2075
203.7959 2075
203.8196 2075
203.8434 2075
203.8708 2075
203.9006 2075
203.9259 2075
203.9582 2075
203.9847 2075
204.0119 2075
204.0371 2075
204.0605 2075
204.0858 2075
204.1116 2075
204.1372 2075
204.169 2075
204.198 2075
204.2262 2075
204.2491 2075
204.273 2075
204.2989 2075
204.3244 2075
204.3474 2075
204.3715 2075
204.3962 2075
204.4249 2075
204.448 2075
204.4787 2075
204.5056 2075
204.5301 2075
204.5542 2075
204.5785 2075
204.6039 2075
204.6285 2075
204.6525 2075
204.6759 2075
204.7017 2075
204.7265 2075
204.7514 2075
204.7753 2075
204.8014 2075
204.8266 2075
204.8507 2075
204.8771 2075
204.903 2075
204.9319 2075
204.961 2075
204.9874 2075
205.0121 2075
205.0371 2075
205.0606 2075
205.0847 2075
205.1095 2075
205.1347 2075
205.1582 2075
205.1833 2075
205.211 2075
205.2398 2075
205.2643 2075
205.2876 2075
205.3209 2075
205.3488 2075
205.3718 2075
205.3958 2075
205.4213 2075
205.4461 2075
205.4702 2075
205.4944 2075
205.5226 2075
205.5506 2075
205.5752 2075
205.5996 2075
205.6248 2075
205.6505 2075
205.6754 2075
205.7012 2075
205.726 2075
205.7541 2075
205.7776 2075
205.8024 2075
205.8273 2075
205.8527 2075
205.8763 2075
205.9008 2075
205.9257 2075
205.9503 2075
205.9752 2075
205.9983 2075
206.029 2075
206.0539 2075
206.0796 2075
206.1037 2075
206.1339 2075
206.1589 2075
206.1852 2075
206.2119 2075
206.2372 2075
206.2676 2075
206.2912 2075
206.3193 2075
206.344 2075
206.371 2075
206.3949 2075
206.419 2075
206.4447 2075
206.4699 2075
206.4944 2075
206.5203 2075
206.5485 2075
206.5748 2075
206.5997 2075
206.624 2075
206.6494 2075
206.6763 2075
206.7003 2075
206.724 2075
206.7488 2075
206.7786 2075
206.8026 2075
206.8269 2075
206.8534 2075
206.8784 2075
206.9028 2075
206.9264 2075
206.9525 2075
206.9783 2075
207.0026 2075
207.0264 2075
207.0594 2075
207.0852 2075
207.11 2075
207.1351 2075
207.1684 2075
207.1983 2075
207.2219 2075
207.2553 2075
207.2828 2075
207.3098 2075
207.3332 2075
207.357 2075
207.3828 2075
207.4084 2075
207.438 2075
207.4615 2075
207.4914 2075
207.5171 2075
207.5407 2075
207.5666 2075
207.5924 2075
207.6183 2075
207.6435 2075
207.6674 2075
207.6932 2075
207.7199 2075
207.7441 2075
207.7692 2075
207.7966 2075
207.8227 2075
207.8478 2075
207.8751 2075
207.901 2075
207.9267 2075
207.9511 2075
207.9758 2075
208.0027 2075
208.0282 2075
208.0526 2075
208.0766 2075
208.1021 2075
208.1284 2075
208.1548 2075
208.181 2075
208.2075 2075
208.2332 2075
208.2608 2075
208.2856 2075
208.3158 2075
208.3421 2075
208.3665 2075
208.3916 2075
208.4168 2075
208.442 2075
208.4669 2075
208.4907 2075
208.5166 2075
208.5421 2075
208.5668 2075
208.5905 2075
208.6161 2075
208.6455 2075
208.6695 2075
208.6934 2075
208.7191 2075
208.7447 2075
208.7704 2075
208.7973 2075
208.8232 2075
208.8498 2075
208.8743 2075
208.8989 2075
208.9259 2075
208.9529 2075
208.9768 2075
209.004 2075
209.0302 2075
209.0562 2075
209.0836 2075
209.1076 2075
209.1337 2075
209.1596 2075
209.1842 2075
209.2076 2075
209.2357 2075
209.2616 2075
209.2864 2075
209.3107 2075
209.3403 2075
209.3701 2075
209.3949 2075
209.4198 2075
209.4493 2075
209.4765 2075
209.5052 2075
209.5294 2075
209.5557 2075
209.5818 2075
209.6059 2075
209.6306 2075
209.656 2075
209.6832 2075
209.7077 2075
209.7346 2075
209.7654 2075
209.7925 2075
209.8259 2075
209.85 2075
209.875 2075
209.9011 2075
209.9257 2075
209.9511 2075
209.9759 2075
210.002 2075
210.0254 2075
210.0493 2075
210.0744 2075
210.104 2075
210.1318 2075
210.1565 2075
210.183 2075
210.2082 2075
210.2321 2075
210.2568 2075
210.2828 2075
210.3084 2075
210.3324 2075
210.364 2075
210.3909 2075
210.4184 2075
210.446 2075
210.4694 2075
210.4969 2075
210.5235 2075
210.5481 2075
210.5719 2075
210.601 2075
210.6264 2075
210.6507 2075
210.6742 2075
210.6996 2075
210.7271 2075
210.7512 2075
210.774 2075
210.7992 2075
210.8284 2075
210.8523 2075
210.8752 2075
210.9029 2075
210.9308 2075
210.9557 2075
210.9816 2075
211.0121 2075
211.0378 2075
211.0658 2075
211.0901 2075
211.1158 2075
211.1445 2075
211.1684 2075
211.1921 2075
211.2246 2075
211.2495 2075
211.2749 2075
211.299 2075
211.3259 2075
211.3546 2075
211.3789 2075
211.4029 2075
211.4314 2075
211.4582 2075
211.4826 2075
211.5064 2075
211.5329 2075
211.5621 2075
211.5857 2075
211.6088 2075
211.6341 2075
211.6591 2075
211.6833 2075
211.7092 2075
211.7346 2075
211.7608 2075
211.7879 2075
211.8124 2075
211.8379 2075
211.8665 2075
211.8909 2075
211.9167 2075
211.9465 2075
211.975 2075
212.0003 2075
212.0255 2075
212.0517 2075
212.0792 2075
212.1074 2075
212.1356 2075
212.1615 2075
212.1876 2075
212.2161 2075
212.2399 2075
212.2657 2075
212.2915 2075
212.3167 2075
212.3405 2075
212.3707 2075
212.3968 2075
212.4209 2075
212.4446 2075
212.471 2075
212.4971 2075
212.5208 2075
212.5444 2075
212.5713 2075
212.5983 2075
212.6243 2075
212.6494 2075
212.6778 2075
212.7079 2075
212.7326 2075
212.757 2075
212.783 2075
212.8116 2075
212.8369 2075
212.8608 2075
212.8866 2075
212.9121 2075
212.9369 2075
212.9645 2075
212.9925 2075
213.0194 2075
213.0473 2075
213.075 2075
213.1016 2075
213.1281 2075
213.1529 2075
213.1775 2075
213.2039 2075
213.2341 2075
213.2629 2075
213.2867 2075
213.3128 2075
213.3394 2075
213.3661 2075
213.3907 2075
213.4167 2075
213.4417 2075
213.4659 2075
213.491 2075
213.516 2075
213.5448 2075
213.5699 2075
213.5987 2075
213.6258 2075
213.6523 2075
213.6768 2075
213.7024 2075
213.728 2075
213.7531 2075
213.7766 2075
213.8045 2075
213.8322 2075
213.8586 2075
213.8887 2075
213.9167 2075
213.9452 2075
213.9737 2075
214.0005 2075
214.0269 2075
214.0534 2075
214.0833 2075
214.1076 2075
214.1333 2075
214.1593 2075
214.1859 2075
214.2107 2075
214.2341 2075
214.2598 2075
214.2868 2075
214.3109 2075
214.336 2075
214.3672 2075
214.396 2075
214.4199 2075
214.4476 2075
214.4734 2075
214.4985 2075
214.5223 2075
214.5497 2075
214.5788 2075
214.6051 2075
214.6338 2075
214.6609 2075
214.6906 2075
214.7172 2075
214.742 2075
214.7665 2075
214.7952 2075
214.8206 2075
214.8442 2075
214.8714 2075
214.8968 2075
214.9262 2075
214.9501 2075
214.9751 2075
215.0007 2075
215.026 2075
215.0506 2075
215.0746 2075
215.1006 2075
215.1298 2075
215.1579 2075
215.1838 2075
215.2139 2075
215.2399 2075
215.2714 2075
215.297 2075
215.3256 2075
215.3509 2075
215.375 2075
215.3998 2075
215.4255 2075
215.4507 2075
215.478 2075
215.5018 2075
215.5276 2075
215.5539 2075
215.5777 2075
215.6037 2075
215.637 2075
215.6665 2075
215.6912 2075
215.7164 2075
215.7422 2075
215.769 2075
215.7937 2075
215.8179 2075
215.8436 2075
215.8733 2075
215.8985 2075
215.9231 2075
215.9494 2075
215.9746 2075
215.9991 2075
216.0229 2075
216.0486 2075
216.0798 2075
216.1036 2075
216.1278 2075
216.1535 2075
216.183 2075
216.2074 2075
216.233 2075
216.2619 2075
216.2884 2075
216.3141 2075
216.3384 2075
216.3671 2075
216.3978 2075
216.4226 2075
216.4494 2075
216.4748 2075
216.5045 2075
216.5297 2075
216.5546 2075
216.5817 2075
216.6074 2075
216.6324 2075
216.6562 2075
216.6821 2075
216.7073 2075
216.7311 2075
216.7552 2075
216.7839 2075
216.8092 2075
216.836 2075
216.862 2075
216.8878 2075
216.918 2075
216.9425 2075
216.9674 2075
216.996 2075
217.0229 2075
217.0478 2075
217.0739 2075
217.1058 2075
217.1312 2075
217.1573 2075
217.1814 2075
217.2066 2075
217.2388 2075
217.2625 2075
217.2876 2075
217.3139 2075
217.3442 2075
217.3682 2075
217.3996 2075
217.4251 2075
217.4546 2075
217.4776 2075
217.5011 2075
217.5264 2075
217.557 2075
217.581 2075
217.6059 2075
217.6312 2075
217.6565 2075
217.6803 2075
217.7045 2075
217.7295 2075
217.7574 2075
217.7818 2075
217.806 2075
217.835 2075
217.8614 2075
217.8899 2075
217.9159 2075
217.942 2075
217.9693 2075
217.9977 2075
218.0225 2075
218.0527 2075
218.0779 2075
218.1025 2075
218.1255 2075
218.1519 2075
218.1775 2075
218.201 2075
218.2267 2075
218.2522 2075
218.2807 2075
218.3044 2075
218.327 2075
218.357 2075
218.3847 2075
218.4082 2075
218.432 2075
218.4578 2075
218.4901 2075
218.5159 2075
218.5418 2075
218.5677 2075
218.5931 2075
218.6199 2075
218.6434 2075
218.6688 2075
218.6946 2075
218.718 2075
218.7423 2075
218.7717 2075
218.7966 2075
218.8242 2075
218.8482 2075
218.8733 2075
218.9019 2075
218.9252 2075
218.9491 2075
218.9776 2075
219.0028 2075
219.027 2075
219.0511 2075
219.0775 2075
219.1039 2075
219.1281 2075
219.1525 2075
219.1837 2075
219.2093 2075
219.2359 2075
219.2615 2075
219.287 2075
219.313 2075
219.341 2075
219.3641 2075
219.3945 2075
219.4217 2075
219.4446 2075
219.4701 2075
219.4964 2075
219.5249 2075
219.5507 2075
219.5811 2075
219.6067 2075
219.6345 2075
219.6583 2075
219.6825 2075
219.7147 2075
219.7405 2075
219.7679 2075
219.7921 2075
219.8211 2075
219.8457 2075
219.8702 2075
219.8965 2075
219.9214 2075
219.9523 2075
219.9756 2075
220.0026 2075
220.0274 2075
220.0548 2075
220.0781 2075
220.1034 2075
220.1296 2075
220.1552 2075
220.1844 2075
220.2098 2075
220.2385 2075
220.2658 2075
220.2909 2075
220.3186 2075
220.3464 2075
220.3732 2075
220.4032 2075
220.4263 2075
220.4519 2075
220.4771 2075
220.5052 2075
220.5288 2075
220.5566 2075
220.5853 2075
220.6086 2075
220.6325 2075
220.6579 2075
220.686 2075
220.7136 2075
220.7388 2075
220.7649 2075
220.7919 2075
220.8165 2075
220.8409 2075
220.8663 2075
220.8914 2075
220.9175 2075
220.9442 2075
220.9693 2075
220.9944 2075
221.0198 2075
221.0435 2075
221.0702 2075
221.0962 2075
221.1201 2075
221.1485 2075
221.1762 2075
221.2024 2075
221.2282 2075
221.2521 2075
221.282 2075
221.3076 2075
221.3324 2075
221.3562 2075
221.3824 2075
221.4085 2075
221.4321 2075
221.4553 2075
221.4862 2075
221.5109 2075
221.5366 2075
221.5611 2075
221.5875 2075
221.6169 2075
221.64 2075
221.6633 2075
221.6939 2075
221.72 2075
221.7459 2075
221.7704 2075
221.7979 2075
221.8233 2075
221.8473 2075
221.8723 2075
221.8983 2075
221.9293 2075
221.9529 2075
221.981 2075
222.0092 2075
222.0347 2075
222.0585 2075
222.0831 2075
222.1107 2075
222.1358 2075
222.1598 2075
222.1853 2075
222.2135 2075
222.2411 2075
222.2641 2075
222.289 2075
222.3177 2075
222.3456 2075
222.3749 2075
222.4006 2075
222.4273 2075
222.4574 2075
222.481 2075
222.5048 2075
222.5318 2075
222.5582 2075
222.5817 2075
222.6058 2075
222.6311 2075
222.6615 2075
222.6912 2075
222.7142 2075
222.7446 2075
222.772 2075
222.7958 2075
222.8204 2075
222.8465 2075
222.8727 2075
222.8958 2075
222.9209 2075
222.9461 2075
222.9733 2075
222.9968 2075
223.0217 2075
223.0495 2075
223.0754 2075
223.1 2075
223.127 2075
223.1525 2075
223.1783 2075
223.2016 2075
223.2249 2075
223.2504 2075
223.278 2075
223.3022 2075
223.3269 2075
223.3567 2075
223.3847 2075
223.4086 2075
223.4322 2075
223.4634 2075
223.4885 2075
223.5128 2075
223.537 2075
223.5624 2075
223.5874 2075
223.6153 2075
223.6486 2075
223.6739 2075
223.6985 2075
223.7234 2075
223.7497 2075
223.7793 2075
223.8067 2075
223.8298 2075
223.8532 2075
223.879 2075
223.9042 2075
223.928 2075
223.9531 2075
223.9802 2075
224.0076 2075
224.0322 2075
224.057 2075
224.0822 2075
224.1123 2075
224.1362 2075
224.1599 2075
224.1858 2075
224.2126 2075
224.2373 2075
224.2623 2075
224.2879 2075
224.3143 2075
224.3382 2075
224.3624 2075
224.3902 2075
224.4235 2075
224.4488 2075
224.4722 2075
224.4977 2075
224.5238 2075
224.5477 2075
224.574 2075
224.6008 2075
224.6322 2075
224.656 2075
224.685 2075
224.7125 2075
224.7377 2075
224.7646 2075
224.7895 2075
224.8145 2075
224.8405 2075
224.8639 2075
224.8877 2075
224.9128 2075
224.9381 2075
224.9685 2075
224.9964 2075
225.0261 2075
225.0522 2075
225.076 2075
225.0996 2075
225.1252 2075
225.1582 2075
225.1824 2075
225.2056 2075
225.2307 2075
225.2563 2075
225.2838 2075
225.3076 2075
225.3409 2075
